Folder: SSPProjectEK/Selected_data (part 2)

File: SSP_2024-10-27_C1_OPER.csv
Crossheadmm,LoadN,Timesec
0.0812,3.77213,0.279
0.1484,4.51841,0.479
0.2151,5.13069,0.679
0.2817,5.87644,0.879
0.3483,6.50536,1.079
0.415,7.22665,1.279
0.4818,8.01062,1.479
0.5485,8.88401,1.679
0.615,9.65175,1.879
0.682,10.447,2.079
0.7487,11.3485,2.279
0.815,12.193,2.479
0.8821,13.1929,2.679
0.9483,14.3348,2.879
1.0152,15.4642,3.079
1.0817,16.7481,3.279
1.1484,17.9957,3.479
1.2154,19.6719,3.679
1.2822,21.3412,3.879
1.3485,23.0115,4.079
1.4152,24.749,4.279
1.4818,26.641,4.479
1.5487,28.6462,4.679
1.6152,30.4741,4.879
1.6817,32.7169,5.079
1.7487,34.8785,5.279
1.8154,37.1749,5.479
1.8819,39.5194,5.679
1.9483,41.9962,5.879
2.0151,44.607,6.079
2.082,47.1402,6.279
2.1483,49.4852,6.479
2.2149,52.2069,6.679
2.2819,54.9884,6.879
2.3487,57.6979,7.079
2.4152,60.4722,7.279
2.4813,63.5795,7.479
2.5484,66.068,7.679
2.6151,68.7844,7.879
2.6816,71.011,8.079
2.7482,73.5717,8.279
2.8149,74.2927,8.479
2.8816,77.3981,8.679
2.9484,81.2422,8.879
3.0148,85.0262,9.079
3.0818,88.8617,9.279
3.1484,92.3906,9.479
3.2148,94.3344,9.679
3.2818,94.022,9.879
3.3481,97.4851,10.079
3.4149,96.7205,10.279
3.4815,100.357,10.479
3.5482,104.27,10.679
3.6153,108.098,10.879
3.6819,111.935,11.079
3.7483,116.224,11.279
3.8149,119.847,11.479
3.8815,123.774,11.679
3.9484,127.279,11.879
4.0149,129.589,12.079
4.0815,130.025,12.279
4.1484,126.647,12.479
4.2151,129.892,12.679
4.2817,133.767,12.879
4.3481,135.327,13.079
4.415,138.266,13.279
4.4819,141.356,13.479
4.5483,145.125,13.679
4.615,148.902,13.879
4.6819,150.596,14.079
4.7488,153.971,14.279
4.8153,157.669,14.479
4.8814,156.123,14.679
4.9485,158.623,14.879
5.0152,162.222,15.079
5.0818,165.61,15.279
5.1484,164.753,15.479
5.2151,162.67,15.679
5.2819,165.289,15.879
5.3486,159.854,16.079
5.4151,157.089,16.279
5.482,157.84,16.479
5.5486,161.353,16.679
5.615,165.38,16.879
5.682,167.957,17.079
5.7483,167.101,17.279
5.8151,167.412,17.479
5.8816,165.326,17.679
5.9483,167.808,17.879
6.0153,171.456,18.079
6.082,175.202,18.279
6.1483,178.185,18.479
6.2151,180.269,18.679
6.2815,173.216,18.879
6.3485,175.424,19.079
6.4151,166.109,19.279
6.4816,167.095,19.479
6.5485,168.035,19.679
6.6151,168.759,19.879
6.6817,151.074,20.079
6.748,145.175,20.279
6.8149,139.559,20.479
6.8817,124.685,20.679
6.9481,121.642,20.879
7.0149,120.823,21.079
7.0817,120.679,21.279
7.1485,121.653,21.479
7.2151,121.655,21.679
7.2812,122.796,21.879
7.3483,121.655,22.079
7.415,82.4756,22.279
7.4816,79.2398,22.479
7.5482,79.4132,22.679
7.6148,77.8913,22.879
7.6816,79.3964,23.079
7.7484,81.0818,23.279
7.8148,82.6153,23.479
7.8818,84.3561,23.679
7.9483,85.3606,23.879
8.0149,85.6591,24.079
8.0818,86.6686,24.279
8.1481,86.2715,24.479
8.2149,85.6104,24.679
8.2817,86.3099,24.879
8.3482,86.3779,25.079
8.4152,87.4769,25.279
8.4819,88.847,25.479
8.5483,90.003,25.679
8.6151,92.0974,25.879
8.6814,94.3985,26.079
8.7485,96.9032,26.279
8.8151,99.2238,26.479
8.8817,100.498,26.679
8.9485,102.08,26.879
9.0152,103.871,27.079
9.0818,105.792,27.279
9.1483,106.818,27.479
9.2151,107.003,27.679
9.282,109.186,27.879
9.3484,111.883,28.079
9.4153,114.353,28.279
9.4818,116.795,28.479
9.5489,118.431,28.679
9.6154,119.847,28.879
9.6816,122.323,29.079
9.7486,124.891,29.279
9.8153,127.26,29.479
9.8819,129.996,29.679
9.9486,132.583,29.879
10.0151,134.932,30.079
10.082,137.166,30.279
10.1486,137.861,30.479
10.2152,126.59,30.679
10.2819,128.476,30.879
10.3487,129.51,31.079
10.4152,129.903,31.279
10.482,128.027,31.479
10.5482,127.089,31.679
10.6151,126.667,31.879
10.6817,122.517,32.079
10.7483,120.477,32.279
10.8152,120.407,32.479
10.8818,121.655,32.679
10.9482,122.961,32.879
11.015,121.406,33.079
11.0812,120.234,33.279
11.1483,118.559,33.479
11.215,69.0104,33.679
11.2815,66.6837,33.879
11.3483,66.935,34.079
11.415,67.7014,34.279
11.4816,68.553,34.479
11.548,69.6311,34.679
11.6148,70.8074,34.879
11.6816,71.4382,35.079
11.7482,72.3526,35.279
11.8151,72.9602,35.479
11.8815,73.5171,35.679
11.9486,71.9502,35.879
12.0152,71.9172,36.079
12.0813,65.1357,36.279
12.1483,65.1844,36.479
12.2151,65.7875,36.679
12.2816,65.7572,36.879
12.3483,61.9521,37.079
12.4149,61.6928,37.279
12.4817,61.7733,37.479
12.5484,61.5043,37.679
12.615,61.3088,37.879
12.6817,61.2502,38.079
12.7485,61.2304,38.279
12.8152,59.7465,38.479
12.8819,59.3648,38.679
12.9481,58.6403,38.879
13.0151,40.5439,39.079
13.0819,39.6928,39.279
13.1484,38.9434,39.479
13.2153,36.7602,39.679
13.282,35.5661,39.879
13.3485,35.0278,40.079
13.4153,33.8941,40.279
13.4815,33.4404,40.479
13.5487,32.853,40.679
13.6154,31.6907,40.879
13.6819,30.8108,41.079
13.7486,30.5776,41.279
13.8154,30.2913,41.479
13.8819,30.049,41.679
13.9484,29.9566,41.879
14.0152,29.9242,42.079
14.082,29.8929,42.279
14.1486,29.8856,42.479
14.2155,29.8455,42.679
14.2819,29.9038,42.879
14.3155,30.0081,42.979

File: SSP_2024-10-27_C2_OPER_Test Run2.csv
Crossheadmm,LoadN,Timesec
0.0339,1.29713,0.112
0.1671,1.84145,0.512
0.3007,1.8769,0.912
0.4342,2.50487,1.312
0.5674,2.93501,1.712
0.7007,3.33319,2.112
0.8339,3.8448,2.512
0.9674,4.30386,2.912
1.101,5.01834,3.312
1.2341,5.40404,3.712
1.3672,5.69238,4.112
1.5007,6.11313,4.512
1.6341,6.76385,4.912
1.7674,7.43322,5.312
1.9002,7.84349,5.712
2.0338,8.13733,6.112
2.167,8.65083,6.512
2.3006,9.1797,6.912
2.4337,9.84036,7.312
2.5669,10.4258,7.712
2.7004,10.7761,8.112
2.8339,11.4809,8.512
2.9671,12.0026,8.912
3.1005,12.3132,9.312
3.2338,13.1797,9.712
3.3674,13.6231,10.112
3.5008,14.314,10.512
3.6341,14.8686,10.912
3.7672,15.3317,11.312
3.9008,16.0473,11.712
4.0341,16.6478,12.112
4.1676,17.3025,12.512
4.3006,17.9388,12.912
4.4341,18.628,13.312
4.5673,19.2515,13.712
4.701,19.7664,14.112
4.8339,20.4618,14.512
4.9671,21.3226,14.912
5.1007,21.8073,15.312
5.2342,22.7674,15.712
5.3673,23.3639,16.112
5.5008,24.0646,16.512
5.6337,24.8415,16.912
5.7674,25.8255,17.312
5.9008,26.0893,17.712
6.0341,26.9569,18.112
6.167,27.6911,18.512
6.3006,28.4438,18.912
6.4338,29.2554,19.312
6.5673,29.8919,19.712
6.7002,30.6896,20.112
6.8337,31.5888,20.512
6.9669,32.3334,20.912
7.1007,33.1143,21.312
7.2337,33.8279,21.712
7.3669,34.5353,22.112
7.5005,35.0368,22.512
7.6342,36.0148,22.912
7.7673,36.851,23.312
7.9008,37.4126,23.712
8.0339,37.8944,24.112
8.1675,38.9842,24.512
8.301,39.5574,24.912
8.4343,40.5536,25.312
8.5673,41.3139,25.712
8.7008,42.0291,26.112
8.8341,42.8663,26.512
8.9677,43.5334,26.912
9.1006,44.2051,27.312
9.234,45,27.712
9.3672,45.7342,28.112
9.5009,46.5391,28.512
9.6339,47.2212,28.912
9.767,47.7215,29.312
9.9006,48.704,29.712
10.0341,49.615,30.112
10.1672,50.4334,30.512
10.3006,51.121,30.912
10.4337,51.768,31.312
10.5672,52.5009,31.712
10.7006,53.2923,32.112
10.8339,54.0536,32.512
10.9669,54.7179,32.912
11.1005,55.5664,33.312
11.2337,56.2942,33.712
11.3672,57.0134,34.112
11.5003,57.7714,34.512
11.6339,57.6472,34.912
11.7671,58.3052,35.312
11.9009,59.1685,35.712
12.0339,59.7401,36.112
12.1671,60.2388,36.512
12.3006,61.0823,36.912
12.4342,61.3904,37.312
12.5674,62.433,37.712
12.7009,63.1883,38.112
12.834,63.8145,38.512
12.9675,64.5978,38.912
13.1009,65.3595,39.312
13.2343,65.7563,39.712
13.3672,66.5847,40.112
13.5008,67.4686,40.512
13.6341,68.1617,40.912
13.7676,68.7862,41.312
13.9006,69.7491,41.712
14.034,70.2192,42.112
14.1671,70.9708,42.512
14.3008,71.5779,42.912
14.4338,72.5652,43.312
14.567,73.1603,43.712
14.7004,73.8173,44.112
14.8341,74.8624,44.512
14.9671,75.5151,44.912
15.1007,75.7973,45.312
15.2337,76.5412,45.712
15.3672,77.004,46.112
15.5005,77.8846,46.512
15.634,78.5984,46.912
15.767,79.2372,47.312
15.9006,79.9597,47.712
16.0338,80.4861,48.112
16.1673,81.5843,48.512
16.3005,82.3225,48.912
16.4339,83.164,49.312
16.5671,83.8743,49.712
16.7009,84.7487,50.112
16.8341,85.3961,50.512
16.9672,86.3502,50.912
17.1006,86.7461,51.312
17.2342,87.3693,51.712
17.3675,88.2545,52.112
17.5011,88.993,52.512
17.634,89.6164,52.912
17.7676,90.4888,53.312
17.9008,91.2286,53.712
18.0343,92.2186,54.112
18.1673,92.7813,54.512
18.3008,93.3337,54.912
18.434,94.0671,55.312
18.5674,94.9191,55.712
18.7005,95.6019,56.112
18.8338,96.0385,56.512
18.967,96.9758,56.912
19.1007,97.8345,57.312
19.2338,98.362,57.712
19.367,99.3059,58.112
19.5003,100.019,58.512
19.634,100.914,58.912
19.7672,101.749,59.312
19.9009,102.635,59.712
20.0338,103.011,60.112
20.1674,104.089,60.512
20.3006,104.986,60.912
20.4341,105.466,61.312
20.5671,106.226,61.712
20.7006,107.012,62.112
20.8339,107.583,62.512
20.9673,108.436,62.912
21.1005,108.72,63.312
21.2339,109.336,63.712
21.3671,109.967,64.112
21.5009,110.756,64.512
21.6342,111.271,64.912
21.7673,111.919,65.312
21.9007,112.729,65.712
22.0342,113.478,66.112
22.1674,114.097,66.512
22.301,115.162,66.912
22.4339,115.834,67.312
22.5674,116.957,67.712
22.7005,117.659,68.112
22.8342,118.762,68.512
22.9673,119.517,68.912
23.1007,120.261,69.312
23.234,120.935,69.712
23.3672,122.192,70.112
23.5004,122.856,70.512
23.6337,123.906,70.912
23.7669,124.723,71.312
23.9006,125.259,71.712
24.0339,126.063,72.112
24.1671,127.036,72.512
24.3004,128.066,72.912
24.4339,128.502,73.312
24.5671,129.168,73.712
24.7007,129.948,74.112
24.8338,130.538,74.512
24.9673,131.334,74.912
25.1004,132.131,75.312
25.2341,133.22,75.712
25.3672,134.038,76.112
25.5007,134.93,76.512
25.634,135.973,76.912
25.7675,136.939,77.312
25.9007,137.681,77.712
26.0341,138.493,78.112
26.1673,139.335,78.512
26.3009,140.102,78.912
26.4343,140.675,79.312
26.5675,141.382,79.712
26.7008,142.288,80.112
26.8342,142.962,80.512
26.9673,143.706,80.912
27.1009,144.331,81.312
27.234,144.885,81.712
27.3675,145.303,82.112
27.5003,145.614,82.512
27.634,146.059,82.912
27.7671,146.394,83.312
27.9006,147.526,83.712
28.0338,148.007,84.112
28.1673,148.636,84.512
28.3005,149.493,84.912
28.4339,150.557,85.312
28.5671,151.442,85.712
28.7007,152.24,86.112
28.8341,153.049,86.512
28.9673,153.457,86.912
29.1005,154.006,87.312
29.234,154.871,87.712
29.3672,155.68,88.112
29.5008,156.764,88.512
29.6339,157.647,88.912
29.7675,158.191,89.312
29.9005,158.707,89.712
30.0342,159.503,90.112
30.1674,156.943,90.512
30.3008,156.703,90.912
30.4341,156.013,91.312
30.5675,157.457,91.712
30.7008,158.663,92.112
30.834,158.895,92.512
30.9673,157.249,92.912
31.1008,158.639,93.312
31.2342,160.144,93.712
31.3674,161.002,94.112
31.5008,40.7008,94.512
31.6341,42.7595,94.912
31.7672,45.606,95.312
31.9007,47.8446,95.712
32.0339,49.5809,96.112
32.1673,51.2586,96.512
32.3003,53.0819,96.912
32.434,54.7281,97.312
32.5672,56.3825,97.712
32.7006,57.8385,98.112
32.8338,59.3323,98.512
32.9672,60.5839,98.912
33.1006,49.0623,99.312
33.2339,51.587,99.712
33.3672,53.5859,100.112
33.5008,55.0171,100.512
33.6342,49.0346,100.912
33.7674,51.0401,101.312
33.9007,53.0963,101.712
34.0341,48.3372,102.112
34.0739,4.38954,102.232

File: SSP_2025-03-17_D1_NO.csv
Crossheadmm,LoadN,Timesec
0.0344,0.198805,0.115
0.1009,0.34186,0.315
0.1681,0.53224,0.515
0.2348,0.708565,0.715
0.3013,0.723475,0.915
0.3676,0.737814,1.115
0.4347,0.93028,1.315
0.5017,0.985567,1.515
0.5681,1.03805,1.715
0.6344,1.27815,1.915
0.7014,1.45134,2.115
0.768,1.48789,2.315
0.8347,1.69687,2.515
0.9012,1.82042,2.715
0.9679,2.10993,2.915
1.0348,2.30982,3.115
1.1014,2.66162,3.315
1.1679,2.90189,3.515
1.2346,3.40356,3.715
1.3012,3.86512,3.915
1.3682,4.39495,4.115
1.4345,4.85484,4.315
1.5012,5.3603,4.515
1.568,6.27998,4.715
1.6348,6.87396,4.915
1.701,7.48583,5.115
1.7679,8.01402,5.315
1.8347,8.75422,5.515
1.9012,9.66134,5.715
1.9678,10.8153,5.915
2.0345,11.537,6.115
2.1011,12.2124,6.315
2.168,13.2848,6.515
2.2344,14.1765,6.715
2.3013,15.2427,6.915
2.3685,16.5558,7.115
2.4344,17.8771,7.315
2.5008,19.1354,7.515
2.568,20.7441,7.715
2.6348,22.5318,7.915
2.7012,24.4751,8.115
2.7676,26.8044,8.315
2.8347,29.2028,8.515
2.9018,31.5162,8.715
2.9681,33.7873,8.915
3.0345,36.5376,9.115
3.1014,39.2916,9.315
3.168,42.3154,9.515
3.2348,45.3472,9.715
3.3013,48.2605,9.915
3.368,51.1161,10.115
3.4349,54.507,10.315
3.5015,58.3089,10.515
3.568,61.4527,10.715
3.6347,65.1192,10.915
3.7014,68.9842,11.115
3.7683,72.7081,11.315
3.8346,76.9049,11.515
3.9013,81.1273,11.715
3.9683,85.6003,11.915
4.035,89.8958,12.115
4.1012,94.5467,12.315
4.168,99.5481,12.515
4.2349,104.578,12.715
4.3014,109.744,12.915
4.3679,114.633,13.115
4.4347,119.778,13.315
4.5014,124.794,13.515
4.5682,130.083,13.715
4.6345,135.093,13.915
4.7013,140.434,14.115
4.7685,145.798,14.315
4.8345,150.623,14.515
4.9009,156.099,14.715
4.968,161.599,14.915
5.0348,167.087,15.115
5.1012,172.456,15.315
5.1675,177.157,15.515
5.2347,182.42,15.715
5.3016,187.503,15.915
5.3679,192.861,16.115
5.4343,198.214,16.315
5.5012,203.648,16.515
5.5678,209.001,16.715
5.6347,214.289,16.915
5.701,218.41,17.115
5.7678,223.411,17.315
5.8346,228.503,17.515
5.9011,233.65,17.715
5.9676,238.456,17.915
6.0343,243.441,18.115
6.101,247.724,18.315
6.1679,250.794,18.515
6.2341,255.093,18.715
6.3008,259.433,18.915
6.3677,263.636,19.115
6.4345,267.759,19.315
6.5007,271.686,19.515
6.5676,275.738,19.715
6.6344,278.347,19.915
6.701,281.536,20.115
6.7675,284.931,20.315
6.8343,287.735,20.515
6.901,279.882,20.715
6.9679,230.916,20.915
7.0343,215.685,21.115
7.1012,194.191,21.315
7.1683,155.823,21.515
7.2345,44.0103,21.715
7.3009,41.8956,21.915
7.368,42.279,22.115
7.4348,42.8437,22.315
7.5011,43.1225,22.515
7.5677,43.526,22.715
7.6347,40.6586,22.915
7.7017,39.7578,23.115
7.768,39.6461,23.315
7.8344,39.9444,23.515
7.9013,40.3623,23.715
7.9679,39.8369,23.915
8.0348,36.7974,24.115
8.1012,36.65,24.315
8.168,36.9109,24.515
8.2349,37.1169,24.715
8.3015,37.2364,24.915
8.368,37.2346,25.115
8.4348,37.5148,25.315
8.5016,37.8246,25.515
8.5684,37.9783,25.715
8.6347,38.2239,25.915
8.7015,38.4084,26.115
8.7683,38.842,26.315
8.8351,38.9917,26.515
8.9013,39.2894,26.715
8.9682,39.5433,26.915
9.035,39.5748,27.115
9.1016,39.5436,27.315
9.1681,39.4799,27.515
9.2349,39.6218,27.715
9.3016,39.4154,27.915
9.3684,38.4436,28.115
9.4347,37.3438,28.315
9.5016,37.2531,28.515
9.5687,37.2406,28.715
9.6347,36.9798,28.915
9.7011,36.8684,29.115
9.7682,36.6028,29.315
9.835,29.6907,29.515
9.9012,27.3763,29.715
9.9679,27.0607,29.915
10.0347,26.7159,30.115
10.1017,26.6427,30.315
10.1679,26.6971,30.515
10.2344,26.7252,30.715
10.3012,26.681,30.915
10.3678,26.8177,31.115
10.4347,26.7959,31.315
10.501,26.9647,31.515
10.5677,26.9633,31.715
10.6346,26.919,31.915
10.7012,27.0476,32.115
10.7676,27.1318,32.315
10.8344,27.1764,32.515
10.9012,27.1772,32.715
10.9679,27.1355,32.915
11.0344,27.1763,33.115
11.1012,27.2536,33.315
11.1679,27.3549,33.515
11.2347,27.5073,33.715
11.301,27.5709,33.915
11.3679,27.8201,34.115
11.4347,27.7988,34.315
11.5013,27.5905,34.515
11.5678,27.6788,34.715
11.6346,27.6121,34.915
11.7013,27.779,35.115
11.7681,27.8078,35.315
11.8344,27.9798,35.515
11.9014,28.1623,35.715
11.9683,28.1578,35.915
12.0345,28.2137,36.115
12.101,28.3468,36.315
12.168,28.5253,36.515
12.2349,28.4727,36.715
12.3012,28.7729,36.915
12.368,28.7414,37.115
12.4347,28.9418,37.315
12.5018,29.1728,37.515
12.5681,29.2629,37.715
12.6346,29.3836,37.915
12.7014,29.4636,38.115
12.768,29.5362,38.315
12.8349,29.6718,38.515
12.9014,29.7073,38.715
12.968,29.875,38.915
13.035,30.0172,39.115
13.1016,30.0897,39.315
13.1681,30.193,39.515
13.2348,30.3009,39.715
13.3017,30.4574,39.915
13.3684,30.4835,40.115
13.4349,30.5667,40.315
13.5015,30.6733,40.515
13.5683,30.5544,40.715
13.6351,30.6126,40.915
13.7014,30.7312,41.115
13.7681,30.8749,41.315
13.835,30.7622,41.515
13.9016,30.6628,41.715
13.9681,30.5988,41.915
14.0347,30.6319,42.115
14.1016,30.5196,42.315
14.1683,30.458,42.515
14.2346,30.1113,42.715
14.3015,30.1398,42.915
14.3685,30.1045,43.115
14.4346,29.7948,43.315
14.5011,29.4925,43.515
14.568,29.2739,43.715
14.6348,28.8404,43.915
14.701,28.4704,44.115
14.7678,28.1842,44.315
14.8346,27.9455,44.515
14.9016,27.8989,44.715
14.9678,27.5409,44.915

File: SSP_2025-03-17_D1_OPER.csv
Crossheadmm,LoadN,Timesec
0.0339,0.781086,0.112
0.1344,1.14935,0.412
0.2339,1.72449,0.712
0.3342,2.15754,1.012
0.4341,2.59064,1.312
0.5339,2.91521,1.612
0.634,3.49072,1.912
0.734,4.1436,2.212
0.8339,4.94083,2.512
0.9341,5.55055,2.812
1.0336,6.14557,3.112
1.134,6.87598,3.412
1.2337,7.95172,3.712
1.3336,8.65391,4.012
1.4342,9.82158,4.312
1.5338,11.0779,4.612
1.6338,12.3848,4.912
1.7341,13.7822,5.212
1.8339,15.4317,5.512
1.9341,16.9142,5.812
2.0341,18.5347,6.112
2.1338,19.6942,6.412
2.2345,20.449,6.712
2.334,21.6261,7.012
2.434,23.2985,7.312
2.5345,24.3415,7.612
2.634,25.7025,7.912
2.7343,26.6651,8.212
2.8342,28.1157,8.512
2.9341,29.2048,8.812
3.0343,30.1756,9.112
3.1342,31.5157,9.412
3.2341,33.6776,9.712
3.3343,35.2525,10.012
3.4339,36.8666,10.312
3.5342,37.854,10.612
3.634,39.7157,10.912
3.7339,42.2572,11.212
3.8344,41.9885,11.512
3.934,44.1064,11.812
4.0337,46.5356,12.112
4.134,49.2795,12.412
4.2339,53.0199,12.712
4.3342,56.5918,13.012
4.434,60.4957,13.312
4.5337,64.6945,13.612
4.6344,68.4751,13.912
4.7338,72.1428,14.212
4.8338,75.9324,14.512
4.9341,79.3317,14.812
5.0337,79.9309,15.112
5.1341,84.3129,15.412
5.234,88.9126,15.712
5.3337,93.0613,16.012
5.434,95.691,16.312
5.5338,99.1059,16.612
5.6336,101.325,16.912
5.7338,107.937,17.212
5.8335,111.707,17.512
5.9338,116.373,17.812
6.0336,121.656,18.112
6.1336,126.403,18.412
6.234,125.997,18.712
6.3337,127.433,19.012
6.4338,130.112,19.312
6.5341,75.3167,19.612
6.6339,78.0842,19.912
6.7341,80.9295,20.212
6.8342,83.7271,20.512
6.9338,85.7665,20.812
7.0346,89.04,21.112
7.1341,91.4952,21.412
7.234,75.3322,21.712
7.3344,77.6572,22.012
7.434,79.4935,22.312
7.5343,78.4675,22.612
7.6343,80.2167,22.912
7.7341,70.6346,23.212
7.8343,49.5253,23.512
7.9342,49.0859,23.812
8.0341,50.1575,24.112
8.1343,50.7541,24.412
8.234,47.8429,24.712
8.3341,45.9883,25.012
8.434,44.6212,25.312
8.534,40.4684,25.612
8.6344,40.2196,25.912
8.734,40.3302,26.212
8.834,39.573,26.512
8.9343,39.758,26.812
9.034,39.459,27.112
9.1341,37.959,27.412
9.2341,34.6574,27.712
9.3338,34.0787,28.012
9.4345,33.8386,28.312
9.5339,34.0803,28.612
9.6338,34.2234,28.912
9.7342,34.0365,29.212
9.8337,34.2586,29.512
9.9339,34.5173,29.812
10.0339,34.3638,30.112
10.1337,34.4157,30.412
10.234,34.515,30.712
10.3338,34.4599,31.012
10.4339,33.6352,31.312
10.5339,33.1032,31.612
10.6338,32.4784,31.912
10.734,32.3253,32.212
10.8339,32.3726,32.512
10.9338,31.694,32.812
11.0343,31.4745,33.112
11.134,31.1357,33.412
11.2339,30.0221,33.712
11.3342,29.3497,34.012
11.434,29.0992,34.312
11.5341,28.9356,34.612
11.6342,28.7706,34.912
11.734,28.6432,35.212
11.8347,28.2122,35.512
11.9341,27.3982,35.812
12.0341,26.9673,36.112
12.1345,27.0122,36.412
12.2341,26.9486,36.712
12.3342,26.9192,37.012
12.4343,26.2788,37.312
12.5341,25.8093,37.612
12.6344,25.4647,37.912
12.7342,25.3884,38.212
12.8342,25.192,38.512
12.9343,25.1199,38.812
13.0341,25.1343,39.112
13.1341,25.1495,39.412
13.2341,25.0748,39.712
13.334,25.1644,40.012
13.4344,25.1302,40.312
13.5341,25.4284,40.612
13.6339,25.3622,40.912
13.7342,25.6487,41.212
13.8339,25.9931,41.512
13.9339,25.7312,41.812
14.034,25.4691,42.112
14.1338,25.3214,42.412
14.2344,25.0282,42.712
14.3339,24.8966,43.012
14.4337,24.8856,43.312
14.5342,25.0386,43.612
14.6338,24.5719,43.912
14.7339,24.6216,44.212
14.834,24.346,44.512
14.9338,24.2739,44.812
15.0341,24.2076,45.112
15.1338,24.0322,45.412
15.234,24.0825,45.712
15.3339,24.2098,46.012
15.4339,23.5136,46.312
15.5339,23.6243,46.612
15.634,23.8545,46.912
15.7339,23.7389,47.212
15.8342,24.0158,47.512
15.9341,24.2631,47.812
16.0339,24.0031,48.112
16.1342,24.0845,48.412
16.2341,23.3391,48.712
16.3342,23.2702,49.012
16.4343,22.6735,49.312
16.5341,21.0546,49.612
16.6346,20.1178,49.912
16.7343,18.763,50.212
16.8342,18.2705,50.512
16.9345,18.037,50.812
17.0342,18.0241,51.112
17.1342,17.6556,51.412
17.2344,17.4992,51.712
17.3342,17.1665,52.012
17.4344,16.8703,52.312
17.5342,16.4423,52.612
17.6344,16.374,52.912
17.7342,16.0092,53.212
17.8341,15.297,53.512
17.9339,14.4587,53.812
18.034,13.9321,54.112
18.1339,11.2794,54.412
18.234,10.1857,54.712
18.3338,8.89976,55.012
18.4338,8.03008,55.312
18.534,7.48908,55.612
18.6339,7.36352,55.912
18.7338,7.16142,56.212
18.834,7.01732,56.512
18.9338,6.94487,56.812
19.0342,6.47352,57.112
19.134,6.74402,57.412
19.2339,6.61428,57.712
19.3341,6.39947,58.012
19.4338,6.21346,58.312
19.5339,6.19303,58.612
19.634,5.92731,58.912
19.7339,6.09856,59.212
19.8341,5.84388,59.512
19.9338,5.69913,59.812
20.0341,5.38658,60.112
20.134,5.29213,60.412
20.234,5.17209,60.712
20.3339,4.79059,61.012
20.434,4.68685,61.312
20.5342,4.34012,61.612
20.6341,4.37919,61.912
20.7342,4.24114,62.212
20.834,3.88291,62.512
20.9343,3.73899,62.812
21.0342,3.91573,63.112
21.1342,2.13787,63.412
21.2344,2.35079,63.712
21.3342,2.30222,64.012
21.4344,2.40305,64.312
21.5344,2.63608,64.612
21.6343,2.73384,64.912
21.7344,2.89329,65.212
21.8342,2.97613,65.512
21.9009,2.97667,65.712