Folder: SSPProjectEK/Selected_data (part 4)

File: SSP_2025-03-20_D8_NO.csv
Crossheadmm,LoadN,Timesec
0.0336,18.1,0.112
0.1003,36.7365,0.312
0.167,49.6808,0.512
0.2337,60.1714,0.712
0.3004,68.6562,0.912
0.3669,73.5276,1.112
0.4337,73.8062,1.312
0.5003,74.1382,1.512
0.5669,91.882,1.712
0.6333,111.934,1.912
0.7001,128.76,2.112
0.7667,144.16,2.312
0.8335,157.932,2.512
0.9001,168.098,2.712
0.9667,176.952,2.912
1.0334,185.227,3.112
1.1001,194.343,3.312
1.1667,203.479,3.512
1.2335,213.52,3.712
1.2999,224.319,3.912
1.3666,236.695,4.112
1.4334,248.256,4.312
1.5003,254.275,4.512
1.5664,260.824,4.712
1.6335,255.405,4.912
1.7,269.919,5.112
1.7669,272.629,5.312
1.8333,289.132,5.512
1.9001,304.385,5.712
1.9668,320.79,5.912
2.0333,336.491,6.112
2.1,353.431,6.312
2.1668,367.517,6.512
2.2335,370.441,6.712
2.3002,381.461,6.912
2.3668,332.359,7.112
2.4335,341.943,7.312
2.5002,357.009,7.512
2.5669,369.531,7.712
2.6335,385.207,7.912
2.7003,399.099,8.112
2.7669,415.485,8.312
2.8336,431.08,8.512
2.9002,442.524,8.712
2.9669,454.498,8.912
3.0334,468.737,9.112
3.1002,479.458,9.312
3.1668,489.52,9.512
3.2335,500.52,9.712
3.3003,509.624,9.912
3.3668,515.326,10.112
3.4335,522.645,10.312
3.5002,532.311,10.512
3.5669,540.044,10.712
3.6336,549.41,10.912
3.7,558.925,11.112
3.7666,569.449,11.312
3.8336,578.344,11.512
3.9003,585.794,11.712
3.9665,589.285,11.912
4.0336,594.362,12.112
4.1,598.338,12.312
4.1669,601.945,12.512
4.2333,598.637,12.712
4.3001,590.487,12.912
4.3668,580.636,13.112
4.4333,546.346,13.312
4.5001,524.748,13.512
4.5668,505.034,13.712
4.6334,486.879,13.912
4.7001,471.035,14.112
4.7666,454.788,14.312
4.8333,427.037,14.512
4.9001,350.332,14.712
4.9668,329.117,14.912
5.0334,316.57,15.112
5.1002,306.011,15.312
5.1668,295.598,15.512
5.2335,281.745,15.712
5.3001,267.681,15.912
5.3669,259.267,16.112
5.4333,255.056,16.312
5.5001,251.512,16.512
5.5668,244.459,16.712
5.6335,238.803,16.912
5.7001,235.721,17.112
5.7667,232.882,17.312
5.8335,216.268,17.512
5.9001,212.179,17.712
5.9668,205.148,17.912
6.0335,186.525,18.112
6.0999,183.469,18.312
6.1667,180.095,18.512
6.2335,178.074,18.712
6.3002,172.285,18.912
6.3663,169.349,19.112
6.4335,166.608,19.312
6.5,157.833,19.512
6.5669,150.891,19.712
6.6334,129.996,19.912
6.7001,126.111,20.112
6.7669,123.752,20.312
6.8334,119.695,20.512
6.9002,116.78,20.712
6.9669,108.635,20.912
7.0337,106.41,21.112
7.1005,104.381,21.312
7.167,104.09,21.512
7.2337,104.241,21.712
7.3004,104.857,21.912
7.3671,105.244,22.112
7.4337,105.515,22.312
7.5005,106.071,22.512
7.5672,106.514,22.712
7.634,106.963,22.912
7.7005,107.584,23.112
7.7672,107.395,23.312
7.8338,90.2967,23.512
7.9006,89.6982,23.712
7.9672,90.3096,23.912
8.0338,91.39,24.112
8.1006,92.3213,24.312
8.1672,93.4678,24.512
8.2339,94.0307,24.712
8.3004,94.227,24.912
8.3672,95.0637,25.112
8.434,95.3226,25.312
8.5003,95.0514,25.512
8.5669,82.8259,25.712
8.634,81.0798,25.912
8.7005,80.6555,26.112
8.7667,80.5107,26.312
8.8338,80.4551,26.512
8.9004,80.5149,26.712
8.9671,80.0403,26.912
9.0335,79.932,27.112
9.1002,79.8255,27.312
9.1669,74.9521,27.512
9.2335,67.4851,27.712
9.3003,66.0362,27.912
9.3668,65.2298,28.112
9.4337,63.8294,28.312
9.5003,62.282,28.512
9.5668,58.7609,28.712
9.6335,56.7236,28.912
9.7003,55.6816,29.112
9.767,55.1852,29.312
9.8335,54.544,29.512
9.9003,53.723,29.712
9.9669,52.2772,29.912
10.0337,50.4292,30.112
10.1002,48.4254,30.312
10.1669,47.1147,30.512
10.2335,45.7643,30.712
10.3003,44.9267,30.912
10.3669,44.3622,31.112
10.4335,44.1293,31.312
10.5002,43.5972,31.512
10.5669,42.988,31.712
10.6336,41.8563,31.912
10.7,40.4422,32.112
10.7669,38.6725,32.312
10.8336,38.1112,32.512
10.9001,38.1184,32.712
10.9667,37.606,32.912
11.0337,37.0706,33.112
11.1003,36.7329,33.312
11.1666,36.3611,33.512
11.2336,35.8509,33.712
11.3003,34.5071,33.912
11.3672,33.1984,34.112
11.4336,32.3458,34.312
11.5003,31.8594,34.512
11.5671,31.3158,34.712
11.6336,31.509,34.912
11.7004,31.1138,35.112
11.767,31.1766,35.312
11.8339,30.5958,35.512
11.9006,30.787,35.712
11.9672,30.2939,35.912
12.0338,29.8828,36.112
12.1005,29.4482,36.312
12.1674,28.7513,36.512
12.2337,27.9012,36.712
12.3006,26.0125,36.912
12.3672,16.1467,37.112
12.4341,15.0259,37.312
12.5006,13.8588,37.512
12.5671,13.1723,37.712
12.6339,12.1283,37.912
12.7007,11.797,38.112
12.7673,11.6585,38.312
12.8338,11.4904,38.512
12.8673,11.2246,38.612

File: SSP_2025-03-20_D12_OPER.csv
Crossheadmm,LoadN,Timesec
0.0337,0.379566,0.112
0.1338,0.632784,0.412
0.234,0.75968,0.712
0.3338,0.853186,1.012
0.434,1.10866,1.312
0.5342,1.24382,1.612
0.6338,1.35261,1.912
0.7339,1.51064,2.212
0.8342,1.55075,2.512
0.934,1.7974,2.812
1.0343,2.13313,3.112
1.1345,2.39027,3.412
1.234,2.69536,3.712
1.3345,2.99379,4.012
1.4342,3.17609,4.312
1.5344,3.78324,4.612
1.6344,4.10019,4.912
1.7339,4.4528,5.212
1.8344,4.98045,5.512
1.9341,5.63186,5.812
2.0341,6.20981,6.112
2.1344,6.97681,6.412
2.234,7.77016,6.712
2.3345,8.76425,7.012
2.434,9.93219,7.312
2.534,10.9713,7.612
2.634,12.2421,7.912
2.7339,13.3891,8.212
2.8338,14.9111,8.512
2.934,16.4791,8.812
3.0337,18.1281,9.112
3.1339,19.9565,9.412
3.2339,21.0979,9.712
3.3338,22.9657,10.012
3.434,25.1136,10.312
3.5341,27.4175,10.612
3.6337,29.743,10.912
3.7342,32.399,11.212
3.8339,34.7675,11.512
3.9341,37.5527,11.812
4.034,40.6019,12.112
4.1336,43.6545,12.412
4.234,46.7775,12.712
4.3339,50.3589,13.012
4.4338,53.9771,13.312
4.5341,58.0223,13.612
4.6338,62.0171,13.912
4.7343,66.1117,14.212
4.8339,70.1298,14.512
4.934,74.1126,14.812
5.0341,77.7926,15.112
5.1341,81.1016,15.412
5.2341,83.1498,15.712
5.3342,85.0197,16.012
5.434,89.9881,16.312
5.534,95.4828,16.612
5.6342,101.295,16.912
5.734,106.949,17.212
5.8343,112.537,17.512
5.9343,118.412,17.812
6.0339,124.488,18.112
6.1343,125.539,18.412
6.2341,131.261,18.712
6.3342,137.401,19.012
6.4343,142.852,19.312
6.5338,129.451,19.612
6.6342,135.202,19.912
6.734,141.203,20.212
6.8338,145.738,20.512
6.9342,148.383,20.812
7.0338,137.126,21.112
7.1342,138.994,21.412
7.2339,143.261,21.712
7.3338,145.464,22.012
7.4339,141.237,22.312
7.5338,139.386,22.612
7.6337,142.527,22.912
7.7339,144.722,23.212
7.8337,140.531,23.512
7.9337,138.901,23.812
8.0338,139.402,24.112
8.1337,101.694,24.412
8.234,99.5397,24.712
8.3337,94.9768,25.012
8.4335,94.1428,25.312
8.534,89.0339,25.612
8.6338,78.8442,25.912
8.7339,79.1075,26.212
8.8341,78.0768,26.512
8.9337,76.4337,26.812
9.0341,70.5496,27.112
9.134,69.6821,27.412
9.2338,71.0469,27.712
9.3342,72.1196,28.012
9.4339,73.8476,28.312
9.5342,73.8715,28.612
9.634,74.62,28.912
9.734,75.3955,29.212
9.8342,76.7836,29.512
9.9342,77.4323,29.812
10.0341,78.5179,30.112
10.1342,79.6907,30.412
10.2341,81.2975,30.712
10.3339,82.6774,31.012
10.4342,83.96,31.312
10.5341,84.4867,31.612
10.6344,85.7587,31.912
10.734,84.0804,32.212
10.8338,82.2042,32.512
10.9344,76.7255,32.812
11.0342,64.7056,33.112
11.1341,60.3999,33.412
11.2343,59.7984,33.712
11.3339,59.5562,34.012
11.4343,59.2358,34.312
11.5341,58.4174,34.612
11.6339,58.1274,34.912
11.7343,57.2671,35.212
11.834,51.079,35.512
11.9341,47.2103,35.812
12.0338,45.5374,36.112
12.1338,43.9035,36.412
12.2339,42.6184,36.712
12.334,42.0851,37.012
12.4338,41.6378,37.312
12.5338,41.0586,37.612
12.6337,39.4482,37.912
12.7336,38.4163,38.212
12.8338,37.3889,38.512
12.9337,36.0966,38.812
13.0341,36.1048,39.112
13.1336,35.0958,39.412
13.2336,34.2096,39.712
13.334,33.3342,40.012
13.434,32.6792,40.312
13.534,32.7276,40.612
13.6341,32.8507,40.912
13.7338,33.2083,41.212
13.8342,32.296,41.512
13.9341,31.804,41.812
14.034,31.5978,42.112
14.1343,31.3636,42.412
14.2341,31.2793,42.712
14.3342,30.9815,43.012
14.434,31.005,43.312
14.5342,30.9155,43.612
14.6342,30.8822,43.912
14.7344,29.9001,44.212
14.8342,22.852,44.512
14.9342,21.7615,44.812
15.0341,21.1543,45.112
15.1338,20.5402,45.412
15.2342,19.9883,45.712
15.3341,19.4458,46.012
15.4344,19.1765,46.312
15.5339,18.368,46.612
15.6339,17.8242,46.912
15.7342,16.012,47.212
15.8341,15.3462,47.512
15.934,15.0814,47.812
16.0342,14.6185,48.112
16.134,14.3094,48.412
16.2343,14.1192,48.712
16.3341,13.8587,49.012
16.4339,13.8227,49.312
16.5342,14.0169,49.612
16.6339,13.7481,49.912
16.7339,13.6143,50.212
16.8337,13.3059,50.512
16.9338,13.0137,50.812
17.0338,12.6356,51.112
17.1339,12.2859,51.412
17.2339,12.2909,51.712
17.3339,12.1508,52.012
17.4338,12.2362,52.312
17.5336,12.0699,52.612
17.634,12.0308,52.912
17.734,11.7492,53.212
17.8342,11.5819,53.512
17.9338,11.1394,53.812
18.0338,11.0469,54.112
18.134,10.4996,54.412
18.234,10.1742,54.712
18.3341,9.85055,55.012
18.4342,9.67094,55.312
18.534,9.65486,55.612
18.6342,9.67368,55.912
18.7342,9.35357,56.212
18.834,9.30479,56.512
18.9343,9.25648,56.812
19.0341,9.12161,57.112
19.1342,9.30188,57.412
19.234,9.20361,57.712
19.3342,9.28127,58.012
19.434,9.08857,58.312
19.5343,9.20057,58.612
19.6342,9.2393,58.912
19.7342,9.20819,59.212
19.8341,9.15917,59.512
19.9339,9.0459,59.812
20.0342,8.55151,60.112
20.1343,8.35764,60.412
20.2344,8.05574,60.712
20.334,8.21131,61.012
20.434,7.88586,61.312
20.5341,7.55949,61.612
20.634,7.4839,61.912
20.734,7.31543,62.212
20.8341,7.33408,62.512
20.9339,7.08621,62.812
21.034,7.1087,63.112
21.134,6.72234,63.412
21.2337,6.48188,63.712
21.334,6.33669,64.012
21.4338,6.46956,64.312
21.5338,6.0399,64.612
21.6336,5.87179,64.912
21.7338,5.88593,65.212
21.8336,5.62745,65.512
21.9339,5.67741,65.812
22.0339,5.02463,66.112
22.1338,4.95327,66.412
22.2338,4.89063,66.712
22.3337,4.80336,67.012
22.4007,4.58424,67.212

File: SSP_2025-03-20_D13_NO.csv
Crossheadmm,LoadN,Timesec
0.034,7.84454,0.112
0.1339,11.4219,0.412
0.234,15.4687,0.712
0.3341,19.7914,1.012
0.4341,25.0957,1.312
0.5341,30.8487,1.612
0.6342,37.0109,1.912
0.734,43.8851,2.212
0.8341,51.2534,2.512
0.9342,59.1674,2.812
1.0339,67.3968,3.112
1.1341,75.6382,3.412
1.2342,83.4367,3.712
1.3341,91.3905,4.012
1.4341,99.0337,4.312
1.5341,107.262,4.612
1.6341,115.941,4.912
1.7341,125.106,5.212
1.834,134.52,5.512
1.9339,143.598,5.812
2.0341,152.74,6.112
2.1339,161.295,6.412
2.2339,170.413,6.712
2.334,179.725,7.012
2.4338,188.901,7.312
2.5337,197.704,7.612
2.6337,205.173,7.912
2.7338,213.087,8.212
2.8338,218.922,8.512
2.9338,221.3125,8.812
3.0339,222.671,9.112
3.1336,199.343,9.412
3.2336,206.523,9.712
3.3336,215.234,10.012
3.4334,223.584,10.312
3.5336,232.293,10.612
3.6337,240.827,10.912
3.7336,248.772,11.212
3.8337,256.304,11.512
3.9337,264.406,11.812
4.0338,272.094,12.112
4.134,279.634,12.412
4.2339,287.144,12.712
4.3338,294.395,13.012
4.4341,299.569,13.312
4.534,282.984,13.612
4.6341,267.447,13.912
4.7343,163.936,14.212
4.8342,94.4108,14.512
4.9341,78.6555,14.812
5.034,81.7587,15.112
5.1342,85.3185,15.412
5.2343,87.9234,15.712
5.334,90.7542,16.012
5.4344,89.8022,16.312
5.5341,80.2149,16.612
5.6342,75.559,16.912
5.7341,77.3877,17.212
5.8339,80.5965,17.512
5.9342,77.5019,17.812
6.0342,77.9624,18.112
6.1339,74.3951,18.412
6.234,74.111,18.712
6.334,76.6836,19.012
6.434,79.3086,19.312
6.5341,81.6779,19.612
6.6338,83.9967,19.912
6.7339,84.7725,20.212
6.8341,86.239,20.512
6.9339,87.0891,20.812
7.0339,81.0788,21.112
7.134,45.0932,21.412
7.2339,38.9286,21.712
7.3337,20.7672,22.012
7.4337,19.5988,22.312
7.5338,19.9883,22.612
7.634,20.3628,22.912
7.7338,20.6869,23.212
7.834,20.7481,23.512
7.9337,19.4957,23.812
8.0339,18.3495,24.112
8.1339,18.5194,24.412
8.2337,18.7678,24.712
8.334,18.7237,25.012
8.4341,19.0382,25.312
8.5339,19.3236,25.612
8.634,19.9873,25.912
8.734,20.1204,26.212
8.8341,20.4787,26.512
8.9342,20.4822,26.812
9.034,20.6192,27.112
9.1341,20.8444,27.412
9.2344,21.1469,27.712
9.3342,21.5917,28.012
9.4343,21.6439,28.312
9.5343,21.8624,28.612
9.6342,22.0887,28.912
9.7342,22.3735,29.212
9.8341,22.6442,29.512
9.9342,22.9753,29.812
10.0343,23.207,30.112
10.1341,23.4643,30.412
10.2344,24.0078,30.712
10.3341,24.1311,31.012
10.4342,24.3328,31.312
10.5341,24.6338,31.612
10.6339,24.6243,31.912
10.7341,25.0063,32.212
10.8341,25.1829,32.512
10.9338,25.2099,32.812
11.0339,25.2547,33.112
11.134,25.4733,33.412
11.234,25.7846,33.712
11.3341,25.7416,34.012
11.4338,25.9918,34.312
11.5338,26.2971,34.612
11.6339,26.5525,34.912
11.7338,26.6369,35.212
11.8339,27.0876,35.512
11.9339,27.3137,35.812
12.0339,27.5285,36.112
12.1339,27.6758,36.412
12.2337,27.9701,36.712
12.3338,28.1944,37.012
12.434,28.532,37.312
12.5338,28.7045,37.612
12.6341,28.9197,37.912
12.7339,29.1691,38.212
12.8339,29.4359,38.512
12.934,29.7584,38.812
13.0339,29.87,39.112
13.1341,30.3074,39.412
13.2341,30.5005,39.712
13.3339,30.6509,40.012
13.434,30.8353,40.312
13.534,30.9777,40.612
13.6341,31.1187,40.912
13.7344,31.3554,41.212
13.8339,31.2876,41.512
13.934,31.3809,41.812
14.0344,31.0676,42.112
14.1341,30.9423,42.412
14.2343,30.7712,42.712
14.3344,30.8264,43.012
14.4341,29.7352,43.312
14.5343,29.1601,43.612
14.6341,28.7701,43.912
14.7342,28.6759,44.212
14.8343,28.5482,44.512
14.934,28.4171,44.812
15.0344,28.1901,45.112
15.1341,28.0369,45.412
15.234,28.055,45.712
15.3341,28.0456,46.012
15.434,27.7842,46.312
15.5341,27.6413,46.612
15.634,27.6951,46.912
15.7337,27.2566,47.212
15.8338,26.91,47.512
15.9339,26.691,47.812
16.0338,26.5034,48.112
16.1341,26.2145,48.412
16.2335,25.67,48.712
16.3338,25.5121,49.012
16.4339,25.3233,49.312
16.5338,25.0437,49.612
16.634,24.849,49.912
16.7341,24.8876,50.212
16.8338,24.6435,50.512
16.9341,24.6787,50.812
17.0338,24.7019,51.112
17.1339,24.6375,51.412
17.234,24.595,51.712
17.3338,24.7152,52.012
17.4341,24.7108,52.312
17.5338,24.7885,52.612
17.6339,24.7136,52.912
17.734,24.5308,53.212
17.834,24.4938,53.512
17.9342,24.1592,53.812
18.0341,24.1437,54.112
18.134,23.8864,54.412
18.234,23.569,54.712
18.3342,23.2929,55.012
18.4341,23.0439,55.312
18.5345,22.9903,55.612
18.634,22.8263,55.912
18.734,22.5469,56.212
18.8343,22.336,56.512
18.9341,22.2028,56.812
19.0343,21.9182,57.112
19.1343,21.927,57.412
19.234,21.516,57.712
19.3344,21.2864,58.012
19.4342,20.9724,58.312
19.5342,20.7729,58.612
19.6344,20.2824,58.912
19.7341,20.1372,59.212
19.8342,19.9534,59.512
19.9339,19.5849,59.812
20.0338,19.323,60.112

File: SSP_2025-03-20_D13_OPER.csv
Crossheadmm,LoadN,Timesec
0.034,0.10522,0.113
0.2009,0.475392,0.613
0.3675,0.721628,1.113
0.5341,0.772776,1.613
0.7007,0.887936,2.113
0.8676,1.20461,2.613
1.0342,1.54552,3.113
1.2007,1.81388,3.613
1.3675,2.09177,4.113
1.534,2.42263,4.613
1.7007,2.9328,5.113
1.8672,3.62894,5.613
2.034,4.41111,6.113
2.2006,5.51237,6.613
2.3674,6.93449,7.113
2.5339,8.78265,7.613
2.7007,11.0328,8.113
2.8673,13.7136,8.613
3.0337,16.6235,9.113
3.2006,19.8401,9.613
3.3672,23.5423,10.113
3.5338,27.5244,10.613
3.7007,31.7557,11.113
3.8676,36.3772,11.613
4.034,41.3214,12.113
4.2009,46.0935,12.613
4.3677,51.0431,13.113
4.5341,56.4617,13.613
4.7009,62.5598,14.113
4.8675,68.4035,14.613
5.0342,73.7516,15.113
5.2008,63.3786,15.613
5.3675,63.7252,16.113
5.5342,49.3837,16.613
5.7007,55.8452,17.113
5.8673,62.2965,17.613
6.0338,68.4003,18.113
6.2007,73.9677,18.613
6.3671,77.1664,19.113
6.5338,79.8117,19.613
6.7005,85.2237,20.113
6.8673,92.6472,20.613
7.0338,98.6784,21.113
7.2005,103.539,21.613
7.3671,108.348,22.113
7.5339,114.149,22.613
7.7004,120.626,23.113
7.8669,127.806,23.613
8.0341,136.31,24.113
8.2007,143.048,24.613
8.3674,150.68,25.113
8.5342,142.467,25.613
8.7009,142.465,26.113
8.8674,149.177,26.613
9.0341,154.205,27.113
9.2008,144.114,27.613
9.3676,143.831,28.113
9.5341,136.455,28.613
9.7009,136.083,29.113
9.8675,82.5829,29.613
10.0339,81.2478,30.113
10.2007,72.5483,30.613
10.3673,69.2003,31.113
10.5339,67.1734,31.613
10.7006,63.7249,32.113
10.8673,59.7631,32.613
11.034,57.7619,33.113
11.2005,47.9097,33.613
11.367,46.2849,34.113
11.5339,44.6892,34.613
11.7003,43.1684,35.113
11.8671,42.0585,35.613
12.0338,41.0952,36.113
12.2005,40.1459,36.613
12.3673,38.1886,37.113
12.534,38.257,37.613
12.7005,37.6209,38.113
12.8675,32.1624,38.613
13.034,31.5187,39.113
13.2008,30.4914,39.613
13.3676,30.152,40.113
13.5339,29.79,40.613
13.701,29.6515,41.113
13.8676,29.9168,41.613
14.0341,29.423,42.113
14.2009,28.7997,42.613
14.3675,28.1629,43.113
14.5342,28.0426,43.613
14.7011,27.8244,44.113
14.8672,27.8732,44.613
15.0339,23.967,45.113
15.2008,23.633,45.613
15.3671,22.7297,46.113
15.5339,22.9614,46.613
15.7007,22.7596,47.113
15.8673,20.1369,47.613
16.0339,19.9189,48.113
16.2005,20.0744,48.613
16.3674,19.6643,49.113
16.5339,19.4662,49.613
16.7005,19.2647,50.113
16.8673,19.2802,50.613
17.034,18.7947,51.113
17.2006,18.7468,51.613
17.3675,18.5555,52.113
17.534,18.7671,52.613
17.7008,17.1255,53.113
17.8675,17.4647,53.613
18.034,17.9066,54.113
18.201,17.8005,54.613
18.3673,18.3699,55.113
18.5341,17.6179,55.613
18.701,17.3395,56.113
18.8673,16.7623,56.613
19.0343,16.2582,57.113
19.2008,16.0359,57.613
19.3673,16.1736,58.113
19.5342,15.4018,58.613
19.7006,15.6453,59.113
19.867,15.2512,59.613
20.034,14.4408,60.113
20.2003,13.9084,60.613
20.3673,13.5579,61.113
20.534,13.289,61.613
20.7002,13.0199,62.113
20.8675,12.99,62.613
21.034,12.8811,63.113
21.2006,13.1283,63.613
21.3673,12.8309,64.113
21.5338,13.2076,64.613
21.7008,13.5448,65.113
21.8676,13.5853,65.613
22.0339,13.589,66.113
22.2008,13.8475,66.613
22.3674,14.0937,67.113
22.5341,14.3104,67.613
22.7007,15.0864,68.113
22.8674,15.2589,68.613
23.0346,14.5517,69.113
23.2008,14.5445,69.613
23.3675,14.6976,70.113
23.5345,14.2591,70.613
23.7006,14.1448,71.113
23.8675,14.0426,71.613
24.0342,14.5708,72.113
24.2005,14.9188,72.613
24.3673,14.9641,73.113
24.5339,15.282,73.613
24.7005,15.3343,74.113
24.8673,15.2991,74.613
25.0337,15.1595,75.113
25.2005,12.9266,75.613
25.3673,13.0977,76.113
25.5335,12.5999,76.613
25.7005,11.9988,77.113
25.8674,11.6414,77.613
26.0339,11.3227,78.113
26.2008,11.6377,78.613
26.3671,11.8465,79.113
26.534,11.9823,79.613
26.7008,12.136,80.113
26.8672,12.0661,80.613
27.0339,11.851,81.113
27.201,10.6756,81.613
27.3674,10.5329,82.113
27.5344,10.8134,82.613
27.7008,10.2824,83.113
27.8677,10.2138,83.613
28.0344,10.6752,84.113
28.2006,10.8787,84.613
28.3676,10.7078,85.113
28.5342,10.7311,85.613
28.7007,10.6085,86.113
28.8675,10.7087,86.613
29.0338,10.5815,87.113
29.2005,10.4164,87.613
29.3673,10.3845,88.113
29.5336,10.1202,88.613
29.7005,6.31514,89.113
29.8671,6.15736,89.613
30.0338,6.36971,90.113
30.2008,6.39961,90.613
30.367,6.35573,91.113
30.534,6.61731,91.613
30.7008,6.26655,92.113
30.8671,6.14502,92.613
31.0342,6.02798,93.113
31.2007,6.32426,93.613
31.3674,6.41029,94.113
31.5342,6.56274,94.613
31.7007,6.74363,95.113
31.8676,6.739,95.613
32.0343,6.8264,96.113
32.2007,6.97031,96.613
32.3676,6.64216,97.113
32.5341,6.36064,97.613
32.7006,5.9197,98.113
32.8676,6.19319,98.613
33.0339,5.99989,99.113
33.2008,6.00777,99.613
33.3675,5.90411,100.113
33.5338,5.49145,100.613
33.7007,5.19244,101.113
33.8673,5.06501,101.613
34.0337,5.15415,102.113
34.2004,5.2562,102.613
34.3671,5.31841,103.113
34.5338,5.36712,103.613
34.7006,5.32957,104.113
34.8672,5.22386,104.613
35.0342,5.11026,105.113
35.2006,4.84061,105.613
35.3675,4.7906,106.113
35.5343,4.75428,106.613
35.7007,4.09561,107.113
35.8676,4.32424,107.613
36.0344,4.27571,108.113
36.2009,4.24701,108.613
36.3676,4.27298,109.113
36.5341,3.92192,109.613
36.7008,3.80263,110.113
36.8675,3.95511,110.613
37.0339,3.71931,111.113
37.2008,3.85226,111.613
37.3676,3.67409,112.113
37.5338,3.63003,112.613
37.7006,3.64232,113.113
37.8672,3.47595,113.613
38.0338,3.33732,114.113
38.2007,3.35931,114.613
38.3671,3.22078,115.113
38.5338,3.145,115.613
38.7006,3.11218,116.113
38.867,3.10874,116.613
39.0338,2.99971,117.113
39.2005,2.90712,117.613
39.3672,2.72085,118.113
39.5341,2.37048,118.613
39.7008,2.02779,119.113
39.8674,2.14915,119.613
40.0344,2.03025,120.113
40.2009,1.79312,120.613
40.3676,1.82587,121.113
40.5341,1.7897,121.613
40.7009,1.70508,122.113
40.8677,1.7238,122.613
41.0343,1.84393,123.113
41.2008,1.66349,123.613
41.3673,1.21751,124.113
41.5342,1.36324,124.613
41.7008,1.03653,125.113
41.8671,1.23184,125.613
42.034,1.12586,126.113
42.201,1.0986,126.613
42.3671,1.12135,127.113
42.5341,1.00546,127.613
42.7007,1.1113,128.113
42.8671,1.10209,128.613
43.0339,0.952075,129.113
43.2004,0.601105,129.613
43.3671,0.567381,130.113
43.5339,0.668034,130.613
43.7005,0.749165,131.113
43.8675,0.661231,131.613
44.0341,0.497888,132.113
44.2007,0.515731,132.613
44.3675,0.344996,133.113
44.5341,0.40178,133.613
44.7006,0.336971,134.113
44.8675,0.287992,134.613
45.0342,0.119588,135.113
45.2009,0.108238,135.613
45.3676,0.0955186,136.113
45.5342,0.159442,136.613
45.701,0.101128,137.113
45.8675,0.117992,137.613
46.0342,0.137395,138.113
46.2006,0.147593,138.613
46.3675,0.0263672,139.113
46.534,0.0391134,139.613
46.7007,0.18272,140.113
46.8674,0.13091,140.613
47.0341,0.123948,141.113
47.2007,0.0132785,141.613
47.3672,0.157001,142.113
47.534,0.134942,142.613
47.7005,0.163536,143.113
47.8673,0.157885,143.613
48.0339,0.113561,144.113
48.2007,0.0233593,144.613

File: SSP_2025-03-20_D15_NO.csv
Crossheadmm,LoadN,Timesec
0.0343,6.21547,0.113
0.0677,8.34044,0.213
0.1011,9.85342,0.313
0.1346,11.9347,0.413
0.1679,14.0317,0.513
0.2009,16.4345,0.613
0.2341,18.9655,0.713
0.2673,21.6805,0.813
0.3007,24.359,0.913
0.3341,27.2581,1.013
0.3675,30.1823,1.113
0.4009,33.5247,1.213
0.4342,36.8896,1.313
0.4675,40.5854,1.413
0.5007,43.8324,1.513
0.5339,47.7445,1.613
0.5673,51.597,1.713
0.6007,55.7748,1.813
0.6341,60.049,1.913
0.6676,64.4659,2.013
0.7008,69.0401,2.113
0.7341,73.701,2.213
0.7671,78.2953,2.313
0.8005,82.961,2.413
0.834,87.989,2.513
0.8676,93.0114,2.613
0.9008,98.2182,2.713
0.9341,103.509,2.813
0.9673,109.223,2.913
1.0004,114.851,3.013
1.0337,120.638,3.113
1.0671,126.676,3.213
1.1007,133.173,3.313
1.134,139.087,3.413
1.1672,145.454,3.513
1.2006,151.667,3.613
1.2338,157.79,3.713
1.2672,163.765,3.813
1.3002,169.068,3.913
1.3335,161.279,4.013
1.3671,166.497,4.113
1.4006,173.823,4.213
1.4339,181.207,4.313
1.4672,188.335,4.413
1.5004,194.982,4.513
1.5336,199.926,4.613
1.5669,186.846,4.713
1.6002,186.517,4.813
1.6337,190.064,4.913
1.667,197.289,5.013
1.7003,205.937,5.113
1.7338,214.736,5.213
1.7671,223.318,5.313
1.8003,231.742,5.413
1.8336,240.078,5.513
1.8669,248.16,5.613
1.9004,256.362,5.713
1.9338,264.611,5.813
1.9672,272.744,5.913
2.0005,280.981,6.013
2.0337,289.182,6.113
2.0669,297.446,6.213
2.1,305.173,6.313
2.1333,312.993,6.413
2.1669,321.398,6.513
2.2002,329.68,6.613
2.2338,337.625,6.713
2.2672,345.486,6.813
2.3001,352.9,6.913
2.3335,359.833,7.013
2.367,364.911,7.113
2.4,372.762,7.213
2.4336,381.204,7.313
2.467,389.676,7.413
2.5004,398.229,7.513
2.5339,406.89,7.613
2.5671,415.103,7.713
2.6002,423.218,7.813
2.6335,431.615,7.913
2.6667,440.086,8.013
2.7001,448.592,8.113
2.7335,457.066,8.213
2.7669,465.478,8.313
2.8003,474.109,8.413
2.8336,482.49,8.513
2.8669,490.813,8.613
2.9001,499.316,8.713
2.9334,507.809,8.813
2.9668,516.2,8.913
3.0001,524.62,9.013
3.0336,533.419,9.113
3.0671,541.947,9.213
3.1003,550.583,9.313
3.1335,559.074,9.413
3.1667,566.896,9.513
3.2,573.681,9.613
3.2335,580.83,9.713
3.267,589.225,9.813
3.3003,597.08,9.913
3.3336,605.018,10.013
3.3668,613.012,10.113
3.4,620.54,10.213
3.4334,628.162,10.313
3.4668,635.367,10.413
3.5003,640.141,10.513
3.5343,28.9546,10.613
3.5675,2.6267,10.713
3.6009,3.77294,10.813
3.6342,3.32065,10.913
3.6675,3.51848,11.013
3.7006,3.64715,11.113
3.7338,4.06144,11.213
3.7674,4.47906,11.313
3.801,4.85114,11.413
3.8343,5.13807,11.513
3.8676,5.36574,11.613
3.9008,5.66841,11.713
3.9341,6.08672,11.813
3.9674,6.39148,11.913
4.0007,7.17166,12.013
4.0341,7.1089,12.113
4.0675,7.50008,12.213
4.1008,8.00646,12.313
4.1344,8.2591,12.413
4.1676,8.657,12.513
4.2009,8.97364,12.613
4.2341,9.39387,12.713
4.2674,9.53984,12.813
4.3009,9.77285,12.913
4.3343,10.0471,13.013
4.3677,10.3112,13.113
4.4012,10.5505,13.213
4.4343,10.6114,13.313
4.4676,10.7519,13.413
4.5007,11.06,13.513
4.5339,10.9339,13.613
4.5673,11.1116,13.713
4.6008,11.1482,13.813
4.6345,11.5039,13.913
4.6678,10.9375,14.013
4.7008,10.8471,14.113
4.7342,11.0347,14.213
4.7676,10.9397,14.313
4.8006,10.8903,14.413
4.8341,10.8669,14.513
4.8676,10.4874,14.613
4.901,10.6654,14.713
4.9345,10.679,14.813
4.9677,10.7811,14.913
5.0008,10.6372,15.013
5.0341,10.6657,15.113
5.0672,10.9088,15.213
5.1006,10.7003,15.313
5.1341,10.81,15.413
5.1676,10.6028,15.513
5.2009,10.407,15.613
5.2342,10.3363,15.713
5.2675,10.2437,15.813
5.3007,10.279,15.913
5.3338,10.4096,16.013
5.3672,10.4324,16.113
5.4007,10.4697,16.213
5.4341,10.5512,16.313
5.4675,10.6389,16.413
5.5008,10.8691,16.513
5.534,10.841,16.613
5.5672,10.6772,16.713
5.6005,10.6461,16.813
5.6339,10.5824,16.913
5.6675,10.4731,17.013
5.7007,10.3999,17.113
5.734,10.1872,17.213
5.7672,10.2179,17.313
5.8004,10.141,17.413
5.8337,10.1077,17.513
5.8671,9.95438,17.613
5.9005,10.031,17.713
5.934,9.70501,17.813
5.9673,9.6961,17.913
6.0006,9.61383,18.013
6.0339,9.49457,18.113