Folder: SSPProjectEK/Selected_data (part 3)

File: SSP_2025-03-17_D2_OPER.csv
Crossheadmm,LoadN,Timesec
0.0341,0.0910324,0.113
0.2009,0.0285753,0.613
0.3677,0.0462329,1.113
0.5341,0.119725,1.613
0.7008,0.200991,2.113
0.8676,0.279793,2.613
1.0341,0.543651,3.113
1.2008,0.567015,3.613
1.3675,0.765651,4.113
1.5337,0.815681,4.613
1.7005,0.994144,5.113
1.8672,1.24281,5.613
2.0336,1.37439,6.113
2.2004,1.49469,6.613
2.3673,1.59203,7.113
2.5339,1.94896,7.613
2.7006,2.15798,8.113
2.8673,2.37281,8.613
3.0343,2.42657,9.113
3.2008,2.72762,9.613
3.3675,2.88879,10.113
3.5342,3.3201,10.613
3.7008,3.54449,11.113
3.8676,3.76445,11.613
4.0343,4.21191,12.113
4.2007,4.57236,12.613
4.3678,4.92665,13.113
4.5342,5.3414,13.613
4.7006,5.64438,14.113
4.8675,5.96591,14.613
5.034,6.311,15.113
5.2008,6.74298,15.613
5.3674,7.08354,16.113
5.5339,7.65092,16.613
5.7008,8.53756,17.113
5.8674,9.24986,17.613
6.0339,10.0356,18.113
6.2008,10.9311,18.613
6.3671,11.3554,19.113
6.5335,12.336,19.613
6.7007,13.4729,20.113
6.867,14.4931,20.613
7.034,15.5225,21.113
7.2006,16.4156,21.613
7.3673,17.5004,22.113
7.5341,18.6665,22.613
7.7008,19.6743,23.113
7.8676,20.5102,23.613
8.0343,20.9719,24.113
8.2007,21.7867,24.613
8.3676,22.7923,25.113
8.5342,23.9239,25.613
8.7006,24.406,26.113
8.8676,25.3294,26.613
9.0341,16.3556,27.113
9.2007,16.7434,27.613
9.3675,17.2034,28.113
9.534,17.8212,28.613
9.701,18.2984,29.113
9.8673,18.9304,29.613
10.0338,19.6417,30.113
10.2008,20.0209,30.613
10.3672,20.4799,31.113
10.5339,21.3791,31.613
10.7005,22.0303,32.113
10.8669,22.4697,32.613
11.034,23.4028,33.113
11.2006,24.0668,33.613
11.367,25.1363,34.113
11.5343,24.5362,34.613
11.7006,23.8337,35.113
11.8673,24.1198,35.613
12.0341,23.6844,36.113
12.2005,23.5128,36.613
12.3676,23.7283,37.113
12.5342,24.2111,37.613
12.7007,24.0217,38.113
12.8677,23.2806,38.613
13.0341,23.279,39.113
13.2011,22.6947,39.613
13.3679,23.195,40.113
13.5338,23.9434,40.613
13.7008,24.6109,41.113
13.8677,24.5068,41.613
14.034,24.3273,42.113
14.2008,23.0081,42.613
14.3673,23.1167,43.113
14.5342,23.9762,43.613
14.7007,24.6097,44.113
14.8672,25.2109,44.613
15.0341,25.1574,45.113
15.2006,25.7459,45.613
15.3671,24.3437,46.113
15.534,24.0882,46.613
15.7004,21.6013,47.113
15.8673,21.4082,47.613
16.034,22.12,48.113
16.2004,22.3468,48.613
16.3672,22.7804,49.113
16.534,23.2079,49.613
16.7005,23.4905,50.113
16.8676,23.8455,50.613
17.0338,24.3605,51.113
17.2007,24.8629,51.613
17.3676,24.8216,52.113
17.534,24.8454,52.613
17.701,25.043,53.113
17.8676,24.7741,53.613
18.0342,24.8519,54.113
18.2011,24.9779,54.613
18.3674,24.8637,55.113
18.5339,25.0031,55.613
18.7011,24.2266,56.113
18.8673,24.4872,56.613
19.0342,22.4003,57.113
19.2007,22.4173,57.613
19.3672,22.5344,58.113
19.5343,23.0361,58.613
19.7004,23.4403,59.113
19.8673,24.0362,59.613
20.034,24.4858,60.113
20.2004,24.7553,60.613
20.3675,24.907,61.113
20.5341,25.295,61.613
20.7003,25.7094,62.113
20.8674,25.7554,62.613
21.0339,25.707,63.113
21.2005,26.0672,63.613
21.3673,26.2493,64.113
21.534,26.4764,64.613
21.701,26.5155,65.113
21.8673,26.1273,65.613
22.0341,25.5891,66.113
22.2011,25.7305,66.613
22.3673,26.0299,67.113
22.5343,26.2115,67.613
22.7009,26.2583,68.113
22.8674,26.7346,68.613
23.0343,27.0716,69.113
23.2008,27.0919,69.613
23.3673,26.6567,70.113
23.5343,26.6014,70.613
23.7004,26.6287,71.113
23.8673,26.1382,71.613
24.0342,26.0621,72.113
24.2005,25.2512,72.613
24.3674,24.3815,73.113
24.5339,24.19,73.613
24.7005,22.9744,74.113
24.8673,20.6695,74.613
25.0337,20.2087,75.113
25.2005,20.4584,75.613
25.3675,20.5296,76.113
25.5337,18.8502,76.613
25.7005,18.6781,77.113
25.8675,18.5841,77.613
26.034,18.0173,78.113
26.2009,17.7531,78.613
26.3673,17.4856,79.113
26.5342,17.6201,79.613
26.701,17.8318,80.113
26.8675,18.0483,80.613
27.0345,17.2541,81.113
27.2009,16.8812,81.613
27.3675,15.5994,82.113
27.5345,14.9888,82.613
27.7007,15.2838,83.113
27.8673,15.5428,83.613
28.0342,15.6757,84.113
28.2006,15.962,84.613
28.3673,16.2756,85.113
28.5338,16.5789,85.613
28.7006,16.9741,86.113
28.8675,16.8153,86.613
29.0337,16.971,87.113
29.2006,17.3644,87.613
29.3672,17.5228,88.113
29.5337,16.1684,88.613
29.7006,15.9046,89.113
29.8671,15.4661,89.613
30.0338,15.7432,90.113
30.2007,15.5515,90.613
30.3673,10.555,91.113
30.534,10.1627,91.613
30.7011,10.359,92.113
30.8675,10.2472,92.613
31.0343,10.0446,93.113
31.2008,10.0057,93.613
31.3675,10.1107,94.113
31.5345,10.441,94.613
31.7008,10.4905,95.113
31.8675,10.6032,95.613
32.0342,10.8036,96.113
32.2009,10.7402,96.613
32.3678,10.4993,97.113
32.5344,10.1749,97.613
32.7006,10.155,98.113
32.8674,9.9499,98.613
33.034,9.69013,99.113
33.2006,9.08088,99.613
33.3672,8.95286,100.113
33.5339,8.91478,100.613
33.7007,9.0624,101.113
33.8671,9.2437,101.613
34.034,9.50231,102.113
34.2008,9.82137,102.613
34.3672,9.84075,103.113
34.534,9.95309,103.613
34.7007,10.0153,104.113
34.8673,9.87673,104.613
35.034,9.13815,105.113
35.2007,9.1595,105.613
35.3674,9.4572,106.113
35.5341,9.76815,106.613
35.7008,10.2323,107.113
35.8676,10.3594,107.613
36.0343,10.4982,108.113
36.2007,10.7805,108.613
36.3675,11.1947,109.113
36.5342,11.4566,109.613
36.7008,11.7309,110.113
36.8676,11.9158,110.613
37.0341,12.2238,111.113
37.2008,12.5321,111.613
37.3675,12.9096,112.113
37.534,13.135,112.613
37.7004,13.0935,113.113
37.8674,11.3475,113.613
38.0339,6.54739,114.113
38.2006,6.42302,114.613
38.3672,6.61491,115.113
38.5338,6.61182,115.613
38.7007,6.49302,116.113
38.8674,6.41657,116.613
39.0341,6.25123,117.113
39.2007,6.21599,117.613
39.3674,6.22159,118.113
39.5341,6.30725,118.613
39.7009,6.21064,119.113
39.8672,6.48618,119.613
40.034,4.49113,120.113
40.2008,3.42132,120.613
40.3674,2.95708,121.113
40.534,2.83696,121.613
40.701,2.53451,122.113
40.8677,2.53648,122.613
41.0341,2.48218,123.113
41.201,2.38821,123.613
41.3676,2.39944,124.113
41.5342,1.8844,124.613
41.701,1.88542,125.113
41.8675,1.68942,125.613
42.0341,1.33344,126.113
42.2007,1.01763,126.613
42.3674,0.752135,127.113
42.534,0.658495,127.613
42.7006,0.565965,128.113
42.8672,0.606632,128.613
43.0339,0.507047,129.113
43.2006,0.465464,129.613
43.3672,0.47813,130.113
43.5338,0.307858,130.613
43.7007,0.0188429,131.113
43.8673,0.223632,131.613
44.0339,0.168511,132.113
44.2007,0.318295,132.613
44.3674,0.0988973,133.113
44.5342,0.248697,133.613
44.7009,0.245552,134.113
44.8672,0.292289,134.613
44.9008,0.252661,134.713

File: SSP_2025-03-17_D3_NO.csv
Crossheadmm,LoadN,Timesec
0.034,1.51458,0.114
0.0672,3.18448,0.214
0.1008,4.29608,0.314
0.1342,5.29124,0.414
0.1676,6.50437,0.514
0.2011,7.36283,0.614
0.2344,8.19778,0.714
0.2677,9.16112,0.814
0.3009,9.90472,0.914
0.3341,10.9763,1.014
0.3674,11.8073,1.114
0.4009,12.4429,1.214
0.4343,13.2165,1.314
0.4676,14.0688,1.414
0.5011,14.9924,1.514
0.5346,15.6478,1.614
0.5677,16.6236,1.714
0.6006,17.3571,1.814
0.6339,18.1738,1.914
0.6675,19.0855,2.014
0.7011,19.894,2.114
0.7344,20.7049,2.214
0.7677,21.6215,2.314
0.8012,22.4438,2.414
0.8345,23.4532,2.514
0.8674,24.2741,2.614
0.9007,25.1849,2.714
0.934,26.0736,2.814
0.9676,27.0666,2.914
1.001,28.0691,3.014
1.0344,28.9614,3.114
1.0677,30.0666,3.214
1.1009,31.0314,3.314
1.1341,32.1669,3.414
1.1675,33.2287,3.514
1.201,34.3711,3.614
1.2344,35.3755,3.714
1.2675,36.5943,3.814
1.3009,37.8564,3.914
1.3344,38.9649,4.014
1.3677,40.1839,4.114
1.4008,41.406,4.214
1.434,42.7095,4.314
1.4675,43.7968,4.414
1.501,45.2849,4.514
1.5346,46.476,4.614
1.5679,47.9891,4.714
1.6012,49.3802,4.814
1.6343,50.704,4.914
1.6672,52.061,5.014
1.7004,53.5039,5.114
1.7341,54.8318,5.214
1.7676,55.961,5.314
1.8011,57.0977,5.414
1.8345,58.3383,5.514
1.8677,59.5974,5.614
1.9006,60.7659,5.714
1.934,62.3109,5.814
1.9674,63.7618,5.914
2.0009,65.234,6.014
2.0344,66.8321,6.114
2.0678,68.2872,6.214
2.1013,69.7664,6.314
2.1345,71.2576,6.414
2.1677,72.7578,6.514
2.2009,74.2964,6.614
2.2342,75.7805,6.714
2.2676,77.3001,6.814
2.3011,78.8374,6.914
2.3345,80.41,7.014
2.3679,82.1607,7.114
2.4013,83.7419,7.214
2.4343,85.293,7.314
2.4676,87.0467,7.414
2.501,88.6103,7.514
2.5343,90.2959,7.614
2.5678,91.9562,7.714
2.6013,93.8091,7.814
2.6346,95.3591,7.914
2.6679,96.8691,8.014
2.7012,98.2289,8.114
2.7344,99.6164,8.214
2.7677,100.959,8.314
2.801,101.867,8.414
2.8345,102.025,8.514
2.8678,102.208,8.614
2.9014,101.255,8.714
2.9349,102.309,8.814
2.9678,103.347,8.914
3.0009,104.391,9.014
3.0343,105.653,9.114
3.0677,106.875,9.214
3.1013,107.714,9.314
3.1347,107.633,9.414
3.1679,107.266,9.514
3.2015,107.191,9.614
3.2347,106.964,9.714
3.2677,106.288,9.814
3.3009,106.087,9.914
3.3342,106.291,10.014
3.3677,109.938,10.114
3.4012,114.92,10.214
3.4346,118.657,10.314
3.4679,122.028,10.414
3.5011,124.45,10.514
3.5344,127.062,10.614
3.5677,129.296,10.714
3.6011,131.484,10.814
3.6345,133.485,10.914
3.6677,135.633,11.014
3.7011,137.713,11.114
3.7346,139.544,11.214
3.7679,141.472,11.314
3.8009,143.446,11.414
3.8341,145.769,11.514
3.8675,147.922,11.614
3.9011,150.045,11.714
3.9347,152.403,11.814
3.968,153.837,11.914
4.0012,155.441,12.014
4.0344,157.567,12.114
4.0671,159.568,12.214
4.1005,161.283,12.314
4.1341,163.423,12.414
4.1676,165.033,12.514
4.201,165.91,12.614
4.2343,166.97,12.714
4.2675,167.542,12.814
4.3005,168.358,12.914
4.3338,169.528,13.014
4.3673,171.085,13.114
4.4006,173.188,13.214
4.4342,175.623,13.314
4.4677,177.869,13.414
4.5011,180.491,13.514
4.5343,183.303,13.614
4.5675,186.264,13.714
4.6007,189.066,13.814
4.6339,192.076,13.914
4.6673,194.919,14.014
4.7008,197.613,14.114
4.7342,200.197,14.214
4.7676,202.471,14.314
4.8009,204.605,14.414
4.834,207.239,14.514
4.8673,207.854,14.614
4.9006,209.614,14.714
4.934,210.068,14.814
4.9675,212.42,14.914
5.0009,214.827,15.014
5.0343,214.033,15.114
5.0677,140.52,15.214
5.1009,131.463,15.314
5.1341,131.107,15.414
5.1674,129.855,15.514
5.2006,125.533,15.614
5.2341,127.366,15.714
5.2675,129.947,15.814
5.3011,132.932,15.914
5.3345,136.052,16.014
5.3674,131.538,16.114
5.4006,133.482,16.214
5.434,133.469,16.314
5.4673,136.238,16.414
5.501,138.983,16.514
5.5343,139.387,16.614
5.5676,134.464,16.714
5.6011,136.57,16.814
5.6344,69.0222,16.914
5.6673,67.8546,17.014
5.7006,68.9722,17.114
5.7339,70.1601,17.214
5.7675,71.5567,17.314
5.8009,73.0314,17.414
5.8343,74.5339,17.514
5.8676,44.0187,17.614
5.9009,1.98787,17.714
5.9341,1.42527,17.814
5.9675,1.5839,17.914
6.0008,1.72604,18.014
6.0342,1.51051,18.114
6.0674,1.7447,18.214
6.101,1.91192,18.314
6.1344,1.82704,18.414
6.1677,2.0632,18.514
6.2008,2.09294,18.614
6.234,2.17602,18.714
6.2674,2.33699,18.814
6.301,2.4212,18.914
6.3346,2.29682,19.014
6.3678,2.44554,19.114
6.4011,2.53115,19.214
6.4342,2.55013,19.314
6.4671,2.70732,19.414
6.5006,2.7355,19.514
6.5342,2.99434,19.614
6.5677,3.03859,19.714
6.6012,3.06354,19.814
6.6345,3.23577,19.914
6.6678,3.20621,20.014
6.7007,3.3799,20.114
6.7341,3.40051,20.214
6.7676,3.46778,20.314
6.8009,3.64318,20.414
6.8345,1.69453,20.514
6.868,1.42097,20.614
6.9013,1.48335,20.714
6.9346,1.54995,20.814
6.9678,1.60313,20.914
7.0011,1.61902,21.014
7.0344,1.53216,21.114
7.0677,1.5117,21.214
7.1011,1.56977,21.314
7.1346,1.55023,21.414
7.168,1.53017,21.514
7.2013,1.4813,21.614
7.2344,1.56453,21.714
7.2678,1.58197,21.814
7.3011,1.45157,21.914
7.3344,1.54952,22.014
7.3679,1.5315,22.114
7.4014,1.48141,22.214
7.4347,1.63003,22.314
7.468,1.43126,22.414
7.5012,1.50611,22.514
7.5346,1.50456,22.614

File: SSP_2025-03-18_D4_OPER.csv
Crossheadmm,LoadN,Timesec
0.0336,0.735613,0.112
0.1668,0.846584,0.512
0.3004,1.1693,0.912
0.4333,1.20563,1.312
0.5671,1.30559,1.712
0.7001,1.47506,2.112
0.834,1.55542,2.512
0.9668,1.43688,2.912
1.1006,1.54612,3.312
1.2332,1.69781,3.712
1.367,1.63629,4.112
1.5001,2.03507,4.512
1.6337,1.98162,4.912
1.7666,1.92912,5.312
1.9003,2.44393,5.712
2.0334,2.29407,6.112
2.167,2.26745,6.512
2.3002,2.50831,6.912
2.4339,2.58722,7.312
2.567,2.61244,7.712
2.7007,2.84987,8.112
2.8336,3.045,8.512
2.9674,3.46203,8.912
3.1004,3.59835,9.312
3.2343,3.57691,9.712
3.367,3.67538,10.112
3.501,3.8843,10.512
3.6336,4.00894,10.912
3.7673,4.06115,11.312
3.9004,4.52564,11.712
4.0341,4.99118,12.112
4.1669,5.27414,12.512
4.3006,5.58924,12.912
4.4336,5.71911,13.312
4.567,6.21752,13.712
4.7001,6.75819,14.112
4.8337,6.89985,14.512
4.9669,7.37246,14.912
5.1005,7.87159,15.312
5.2334,7.92406,15.712
5.3671,8.6787,16.112
5.5001,9.01731,16.512
5.6339,9.31094,16.912
5.7667,10.0184,17.312
5.9006,10.3769,17.712
6.0333,10.7869,18.112
6.1669,11.6543,18.512
6.3001,12.1838,18.912
6.4338,13.0572,19.312
6.5668,13.7174,19.712
6.7004,14.5285,20.112
6.8336,15.5357,20.512
6.9671,16.4188,20.912
7.1003,17.3459,21.312
7.2339,18.5527,21.712
7.367,19.5172,22.112
7.5007,20.3229,22.512
7.6337,21.6486,22.912
7.7673,21.7924,23.312
7.9004,23.5454,23.712
8.0343,24.8648,24.112
8.1671,26.1049,24.512
8.301,26.9877,24.912
8.4337,28.8009,25.312
8.5674,28.4136,25.712
8.7005,28.4007,26.112
8.8342,29.2579,26.512
8.9671,30.2526,26.912
9.1006,31.0898,27.312
9.2338,32.9084,27.712
9.367,34.4853,28.112
9.5001,35.6389,28.512
9.6336,35.3191,28.912
9.7668,35.8623,29.312
9.9004,34.4281,29.712
10.0333,36.0712,30.112
10.167,36.9893,30.512
10.3,38.3942,30.912
10.4338,40.2634,31.312
10.5668,42.5944,31.712
10.7006,45.637,32.112
10.8334,47.2308,32.512
10.967,50.0316,32.912
11.1002,52.0237,33.312
11.2339,51.3649,33.712
11.3669,51.8227,34.112
11.5005,54.806,34.512
11.6337,56.9159,34.912
11.7671,59.936,35.312
11.9003,61.5257,35.712
12.0339,64.1763,36.112
12.1671,66.5558,36.512
12.3008,68.6971,36.912
12.4337,69.4795,37.312
12.5673,68.7874,37.712
12.7003,67.9704,38.112
12.8341,69.6601,38.512
12.967,69.6982,38.912
13.1009,60.8155,39.312
13.2337,52.8438,39.712
13.3674,48.3695,40.112
13.5005,49.237,40.512
13.6341,50.1544,40.912
13.767,47.5547,41.312
13.9004,49.562,41.712
14.0336,47.6564,42.112
14.1668,46.7856,42.512
14.3001,44.5873,42.912
14.4335,42.0374,43.312
14.5667,41.4291,43.712
14.7003,40.5634,44.112
14.8335,40.8716,44.512
14.9669,40.485,44.912
15.1001,39.768,45.312
15.2337,27.0036,45.712
15.3669,23.6908,46.112
15.5006,22.7115,46.512
15.6335,23.0044,46.912
15.7671,22.9338,47.312
15.9003,23.0518,47.712
16.0339,21.973,48.112
16.167,21.8096,48.512
16.3005,22.3536,48.912
16.4338,22.1252,49.312
16.5671,22.1039,49.712
16.7004,21.4909,50.112
16.834,21.5302,50.512
16.9672,21.9256,50.912
17.1007,21.6773,51.312
17.2338,21.0229,51.712
17.3673,21.583,52.112
17.5004,21.322,52.512
17.6341,21.6845,52.912
17.7672,21.8393,53.312
17.9008,22.3072,53.712
18.0337,22.5011,54.112
18.1672,23.043,54.512
18.3003,23.1276,54.912
18.4339,23.5765,55.312
18.5669,24.0795,55.712
18.7003,20.0254,56.112
18.8336,20.8373,56.512
18.9668,15.4547,56.912
19.1002,14.7897,57.312
19.2336,14.8793,57.712
19.3668,15.3474,58.112
19.5004,15.5682,58.512
19.6335,15.9998,58.912
19.767,15.7152,59.312
19.9002,15.5489,59.712
20.0337,14.8347,60.112
20.1671,14.6494,60.512
20.3007,14.7785,60.912
20.4337,14.901,61.312
20.5672,15.2068,61.712
20.7004,15.4715,62.112
20.834,15.2507,62.512
20.9672,15.171,62.912
21.1006,15.2134,63.312
21.2339,13.3926,63.712
21.3671,12.3958,64.112
21.5005,12.511,64.512
21.6339,12.4635,64.912
21.7671,12.7304,65.312
21.9007,12.27,65.712
22.0338,12.3827,66.112
22.1672,12.27,66.512
22.3004,12.3751,66.912
22.4338,12.6345,67.312
22.5672,12.744,67.712
22.7007,12.5989,68.112
22.8336,12.5782,68.512
22.9671,12.9518,68.912
23.1003,12.8991,69.312
23.2338,12.9482,69.712
23.367,12.6654,70.112
23.5003,12.3485,70.512
23.6336,12.5837,70.912
23.7667,12.4197,71.312
23.9002,12.1139,71.712
24.0335,12.1351,72.112
24.1669,10.1577,72.512
24.3004,9.82329,72.912
24.4336,9.542,73.312
24.567,9.431,73.712
24.7003,9.30283,74.112
24.8336,9.22224,74.512
24.9672,9.07711,74.912
25.1006,9.12423,75.312
25.2338,8.97351,75.712
25.3672,9.00988,76.112
25.5005,8.72784,76.512
25.634,8.12919,76.912
25.7673,8.02179,77.312
25.9005,7.18041,77.712
26.0339,6.86329,78.112
26.1669,6.29814,78.512
26.3006,6.01486,78.912
26.4337,5.35111,79.312
26.5671,4.76126,79.712
26.7005,4.42508,80.112
26.8338,4.21506,80.512
26.967,4.55927,80.912
27.1003,3.82952,81.312
27.2336,3.59115,81.712
27.3671,3.67162,82.112
27.5004,3.33875,82.512
27.6336,3.01636,82.912
27.7669,2.89226,83.312
27.9002,2.77697,83.712
28.0336,2.71354,84.112
28.1669,2.47364,84.512
28.3001,2.31762,84.912
28.4336,2.34365,85.312
28.5665,2.04943,85.712
28.7003,1.66303,86.112
28.8334,1.7007,86.512
28.9669,1.41336,86.912
29.1003,1.40354,87.312
29.2338,1.17639,87.712
29.367,1.15641,88.112
29.5004,1.12476,88.512
29.6336,0.845306,88.912
29.7673,0.852057,89.312
29.9005,1.01068,89.712
30.034,0.837495,90.112
30.1672,0.969423,90.512
30.3006,1.05971,90.912
30.4339,0.928605,91.312
30.5673,1.06147,91.712
30.7003,1.10505,92.112
30.8339,1.04255,92.512
30.9668,0.952321,92.912
31.1006,0.882753,93.312
31.2334,0.478066,93.712
31.367,0.585268,94.112
31.5002,0.481042,94.512
31.6337,0.491726,94.912
31.7668,0.562131,95.312
31.9002,0.287482,95.712
32.0333,0.0213741,96.112
32.167,0.223117,96.512
32.3,0.111592,96.912
32.4336,0.196733,97.312
32.5668,0.125584,97.712
32.7002,0.38603,98.112
32.8334,0.119664,98.512
32.967,0.0212884,98.912
33.1,0.176699,99.312

File: SSP_2025-03-19_D11_OPER.csv
Crossheadmm,LoadN,Timesec
0.0338,1.29318,0.112
0.1674,1.46389,0.512
0.3005,1.82496,0.912
0.4339,2.19943,1.312
0.5672,2.6354,1.712
0.7006,3.27509,2.112
0.8339,3.98093,2.512
0.9675,5.16744,2.912
1.1006,6.24206,3.312
1.234,7.77354,3.712
1.3669,9.78503,4.112
1.5008,12.1161,4.512
1.6339,14.8956,4.912
1.7674,18.4716,5.312
1.9005,22.717,5.712
2.0341,27.281,6.112
2.1674,32.1735,6.512
2.3008,37.2876,6.912
2.4339,42.6674,7.312
2.5676,48.1969,7.712
2.7007,53.9495,8.112
2.8342,59.9241,8.512
2.9674,65.8135,8.912
3.1009,72.041,9.312
3.2339,78.3343,9.712
3.3677,84.4044,10.112
3.5007,90.3475,10.512
3.6342,96.0279,10.912
3.767,100.873,11.312
3.901,106.468,11.712
4.0339,112.197,12.112
4.1675,117.523,12.512
4.3005,122.225,12.912
4.434,125.028,13.312
4.5672,126.562,13.712
4.7005,130.338,14.112
4.8336,129.326,14.512
4.9672,136.465,14.912
5.1003,136.89,15.312
5.2339,141.482,15.712
5.367,145.818,16.112
5.5005,150.651,16.512
5.6336,143.572,16.912
5.7674,87.9829,17.312
5.9005,42.975,17.712
6.0341,44.2392,18.112
6.1669,47.1779,18.512
6.3009,49.8728,18.912
6.4339,53.3989,19.312
6.5676,55.8477,19.712
6.7006,57.1974,20.112
6.8342,61.1223,20.512
6.9674,64.548,20.912
7.1008,63.8417,21.312
7.2339,65.6003,21.712
7.3676,68.4718,22.112
7.5005,71.7434,22.512
7.6342,72.9084,22.912
7.7673,77.5854,23.312
7.9008,82.0313,23.712
8.0338,86.7685,24.112
8.1677,86.8223,24.512
8.3006,85.8088,24.912
8.4342,90.4572,25.312
8.5668,94.5024,25.712
8.701,98.9246,26.112
8.8338,101.761,26.512
8.9675,102.336,26.912
9.1004,105.571,27.312
9.234,108.638,27.712
9.3671,111.464,28.112
9.5004,112.799,28.512
9.6335,116.936,28.912
9.7672,121.398,29.312
9.9001,125.224,29.712
10.0339,128.683,30.112
10.1669,132.74,30.512
10.3006,126.955,30.912
10.4336,129.434,31.312
10.5674,120.09,31.712
10.7006,126.092,32.112
10.8342,131.28,32.512
10.9669,136.886,32.912
11.1009,140.652,33.312
11.2338,145.902,33.712
11.3675,150.453,34.112
11.5005,153.936,34.512
11.6341,158.371,34.912
11.7672,160.527,35.312
11.9006,152.259,35.712
12.0338,154.763,36.112
12.1676,99.8176,36.512
12.3005,74.0643,36.912
12.4343,74.9515,37.312
12.5673,75.6946,37.712
12.7009,78.155,38.112
12.8339,80.7575,38.512
12.9676,74.1596,38.912
13.1008,75.8387,39.312
13.2343,78.4016,39.712
13.3668,81.3946,40.112
13.501,80.4948,40.512
13.6338,83.2386,40.912
13.7675,86.1465,41.312
13.9005,88.8631,41.712
14.0339,90.3672,42.112
14.167,90.7749,42.512
14.3004,90.2933,42.912
14.4336,70.8169,43.312
14.5672,72.2058,43.712
14.7003,71.73,44.112
14.834,70.6621,44.512
14.967,72.5082,44.912
15.1006,73.6361,45.312
15.2337,75.1115,45.712
15.3674,75.5307,46.112
15.5008,76.087,46.512
15.6343,77.4969,46.912
15.7669,78.5891,47.312
15.901,79.8629,47.712
16.0339,81.1694,48.112
16.1677,74.2746,48.512
16.3007,58.219,48.912
16.4342,55.2134,49.312
16.5674,54.3918,49.712
16.7007,52.5244,50.112
16.834,51.1262,50.512
16.9676,51.1243,50.912
17.1007,52.1871,51.312
17.2343,52.4796,51.712
17.3673,52.153,52.112
17.5009,52.0806,52.512
17.6339,48.0411,52.912
17.7675,45.8906,53.312
17.9009,44.4487,53.712
18.0344,44.1429,54.112
18.1668,42.3975,54.512
18.3008,41.7043,54.912
18.4337,41.2223,55.312
18.5674,40.3741,55.712
18.7004,39.4096,56.112
18.8339,39.2663,56.512
18.9671,39.357,56.912
19.1004,39.1114,57.312
19.2337,39.0978,57.712
19.3673,38.2124,58.112
19.5004,37.2871,58.512
19.634,35.0636,58.912
19.7672,33.8383,59.312
19.9006,33.016,59.712
20.0337,31.7169,60.112
20.1673,31.5588,60.512
20.3008,31.377,60.912
20.4344,31.6001,61.312
20.5671,31.0966,61.712
20.701,31.3021,62.112
20.834,30.8596,62.512
20.9678,30.9477,62.912
21.1008,31.0661,63.312
21.2343,29.6658,63.712
21.3675,29.1585,64.112
21.5008,29.567,64.512
21.6341,27.1119,64.912
21.7676,26.298,65.312
21.9007,26.6845,65.712
22.0343,26.4023,66.112
22.1674,26.514,66.512
22.3009,25.9966,66.912
22.4339,26.294,67.312
22.5674,26.2543,67.712
22.7008,26.1287,68.112
22.8343,26.4028,68.512
22.967,26.1948,68.912
23.1008,25.7144,69.312
23.2338,24.8006,69.712
23.3675,23.3165,70.112
23.5005,21.7804,70.512
23.6339,21.4534,70.912
23.7671,20.8905,71.312
23.9004,18.0055,71.712
24.0338,16.8082,72.112
24.1673,16.7068,72.512
24.3004,16.4406,72.912
24.434,16.2595,73.312
24.5673,16.0123,73.712
24.7008,15.5763,74.112
24.8338,15.4101,74.512
24.9673,15.1961,74.912
25.1009,15.2658,75.312
25.2345,15.1731,75.712
25.3672,14.9702,76.112
25.501,14.6419,76.512
25.6341,14.2694,76.912
25.7677,14.222,77.312
25.9009,14.1707,77.712
26.0342,14.1704,78.112
26.1675,14.2142,78.512
26.3007,14.335,78.912
26.4341,14.4943,79.312
26.5674,14.5205,79.712
26.7006,14.3502,80.112
26.8341,14.1245,80.512
26.9673,13.7843,80.912
27.1007,13.8918,81.312
27.2339,14.0975,81.712
27.3672,14.3668,82.112
27.5008,14.6274,82.512
27.6343,14.6779,82.912
27.7672,14.8852,83.312
27.9008,15.0517,83.712
28.0339,14.3565,84.112
28.1673,14.2231,84.512
28.3006,14.3451,84.912
28.4338,14.6448,85.312
28.5672,14.6818,85.712
28.7005,14.6705,86.112
28.834,14.6361,86.512
28.9673,14.6282,86.912
29.1005,14.6733,87.312
29.234,14.7276,87.712
29.3674,14.5509,88.112
29.5008,13.8609,88.512
29.6339,13.9959,88.912
29.7673,14.0944,89.312
29.9009,14.2406,89.712
30.0345,13.9463,90.112
30.1674,13.3543,90.512
30.3009,13.1449,90.912
30.4341,12.7615,91.312
30.5676,12.9622,91.712
30.701,13.0594,92.112
30.8341,13.2489,92.512
30.9675,12.9602,92.912
31.1007,12.8066,93.312
31.2343,12.2522,93.712
31.3675,12.2427,94.112
31.5007,12.1843,94.512
31.6341,12.1584,94.912
31.7675,12.0468,95.312
31.9008,11.865,95.712
32.0339,11.0271,96.112
32.1672,10.9395,96.512
32.3008,11.1353,96.912
32.4342,11.2761,97.312
32.5672,10.6133,97.712
32.7006,10.6034,98.112
32.8338,10.7754,98.512
32.9673,11.1604,98.912
33.1006,11.1581,99.312
33.2337,9.57397,99.712
33.3672,9.47742,100.112
33.5005,9.63624,100.512
33.6341,10.081,100.912
33.7674,9.73998,101.312
33.9006,9.23586,101.712
34.0341,9.3069,102.112
34.1676,9.27961,102.512
34.3009,9.29724,102.912
34.434,9.54822,103.312
34.5674,9.65348,103.712
34.701,9.6144,104.112
34.8344,9.70097,104.512
34.9675,9.61492,104.912
35.1009,9.45962,105.312
35.2342,9.58515,105.712
35.3676,9.64847,106.112
35.5011,9.93457,106.512
35.6341,9.89871,106.912
35.7676,10.1812,107.312
35.9008,10.3965,107.712
36.0343,10.3973,108.112
36.1675,10.4514,108.512
36.3006,10.2775,108.912
36.434,10.1309,109.312
36.5674,10.1496,109.712
36.7007,9.72021,110.112
36.8338,9.74262,110.512
36.9671,9.28732,110.912
37.1007,9.40669,111.312
37.2342,9.37495,111.712
37.3672,9.47109,112.112
37.5005,9.65012,112.512
37.6339,9.56767,112.912
37.7339,9.71024,113.212