Folder: SSPProjectEK/Selected_data

Note: README.md
# SSP Project
Comparative evaluation of surgical methods in the treatment of chronic irreparable supraspinatus tears.

Biomechanics analysis pipeline and database for the supraspinatus tear surgical comparison study.

## Quick Start

### 1. Install Dependencies
```bash
pip install -r requirements.txt
```

### 2. Convert B-series (optional)
```bash
cd Data
python convert_b_series.py
```

### 3. Run Analysis
```bash
cd Data
python run_analysis.py
```

### 4. Update Database
```bash
cd Data/database
python update_results.py
```

### 5. Launch Interactive App
```bash
streamlit run Data/app.py
```

Manual stiffness selections are stored in:
- `Data/Results/manual_stiffness.csv`
- Database table `manual_results` in `Data/database/ssp_study.db`

## Configuration

All paths and group assignments live in `Data/config.json`.

Key fields:
- `data_paths.selected_data_dir`: input CSVs
- `data_paths.results_dir`: analysis outputs
- `groups.TFL_IDS` / `groups.MSC_IDS`: subgroup assignments

## Project Layout

```
Data/
├── config.json                 # Central config (paths + group IDs)
├── analysis_pipeline.py        # Canonical analysis logic
├── run_analysis.py             # Entry point script
├── convert_b_series.py         # Convert legacy B-series TXT files
├── app.py                      # Interactive Streamlit UI
├── app_utils.py                # App helper utilities
├── Selected_data/              # Input CSVs
├── Results/                    # Output results + plots
└── database/                   # SQLite DB + scripts
```

## Tests

```bash
pytest
```

File: SSP_2022-12-08_B1_OPER.csv
Crossheadmm,LoadN,Timesec
0.0,0.67,0.000
0.05,0.88,0.300
0.1,1.2,0.600
0.15,1.49,0.900
0.2,1.63,1.200
0.25,1.76,1.500
0.3,2.0,1.800
0.35,2.41,2.100
0.4,2.62,2.400
0.45,3.03,2.700
0.5,3.35,3.000
0.55,3.64,3.300
0.6,4.09,3.600
0.65,4.42,3.900
0.7,4.78,4.200
0.75,5.06,4.500
0.8,5.34,4.800
0.85,5.83,5.100
0.9,6.18,5.400
0.95,6.73,5.700
1.0,6.93,6.000
1.05,7.39,6.300
1.1,7.82,6.600
1.15,8.02,6.900
1.2,8.36,7.200
1.25,8.7,7.500
1.3,9.06,7.800
1.35,9.43,8.100
1.4,9.72,8.400
1.45,10.06,8.700
1.5,10.31,9.000
1.55,10.64,9.300
1.6,10.98,9.600
1.65,11.25,9.900
1.7,11.65,10.200
1.75,11.99,10.500
1.8,12.44,10.800
1.85,12.94,11.100
1.9,13.3,11.400
1.95,13.69,11.700
2.0,14.09,12.000
2.05,14.57,12.300
2.1,14.92,12.600
2.15,15.44,12.900
2.2,15.78,13.200
2.25,16.46,13.500
2.3,16.87,13.800
2.35,17.47,14.100
2.4,17.87,14.400
2.45,18.53,14.700
2.5,19.0,15.000
2.55,19.4,15.300
2.6,20.16,15.600
2.65,20.7,15.900
2.7,21.21,16.200
2.75,21.78,16.500
2.8,22.41,16.800
2.85,23.03,17.100
2.9,23.56,17.400
2.95,24.28,17.700
3.0,24.83,18.000
3.05,25.55,18.300
3.1,26.06,18.600
3.15,26.94,18.900
3.2,27.41,19.200
3.25,28.08,19.500
3.3,28.76,19.800
3.35,29.57,20.100
3.4,30.31,20.400
3.45,31.0,20.700
3.5,31.94,21.000
3.55,32.57,21.300
3.6,33.54,21.600
3.65,34.42,21.900
3.7,35.36,22.200
3.75,36.19,22.500
3.8,37.2,22.800
3.85,38.26,23.100
3.9,39.19,23.400
3.95,40.32,23.700
4.0,41.34,24.000
4.05,42.68,24.300
4.1,43.7,24.600
4.15,44.86,24.900
4.2,46.05,25.200
4.25,47.12,25.500
4.3,48.36,25.800
4.35,49.58,26.100
4.4,50.78,26.400
4.45,51.84,26.700
4.5,53.1,27.000
4.55,54.24,27.300
4.6,55.48,27.600
4.65,56.63,27.900
4.7,57.64,28.200
4.75,58.6,28.500
4.8,59.75,28.800
4.85,60.6,29.100
4.9,61.29,29.400
4.95,61.88,29.700
5.0,63.12,30.000
5.05,64.63,30.300
5.1,65.85,30.600
5.15,67.16,30.900
5.2,68.41,31.200
5.25,69.95,31.500
5.3,71.56,31.800
5.35,73.16,32.100
5.4,74.63,32.400
5.45,76.21,32.700
5.5,77.72,33.000
5.55,79.27,33.300
5.6,80.2,33.600
5.65,81.79,33.900
5.7,83.45,34.200
5.75,84.96,34.500
5.8,86.45,34.800
5.85,88.11,35.100
5.9,89.53,35.400
5.95,90.86,35.700
6.0,92.39,36.000
6.05,93.58,36.300
6.1,95.28,36.600
6.15,96.9,36.900
6.2,98.65,37.200
6.25,100.19,37.500
6.3,101.84,37.800
6.35,103.5,38.100
6.4,105.09,38.400
6.45,106.67,38.700
6.5,108.46,39.000
6.55,110.07,39.300
6.6,111.75,39.600
6.65,112.98,39.900
6.7,114.77,40.200
6.75,116.31,40.500
6.8,117.92,40.800
6.85,119.65,41.100
6.9,121.37,41.400
6.95,122.51,41.700
7.0,123.9,42.000
7.05,125.06,42.300
7.1,126.6,42.600
7.15,128.21,42.900
7.2,128.06,43.200
7.25,129.16,43.500
7.3,130.31,43.800
7.35,131.36,44.100
7.4,132.58,44.400
7.45,133.64,44.700
7.5,134.05,45.000
7.55,131.4,45.300
7.6,130.79,45.600
7.65,130.87,45.900
7.7,131.61,46.200
7.75,132.54,46.500
7.8,132.98,46.800
7.85,133.14,47.100
7.9,133.35,47.400
7.95,133.38,47.700
8.0,133.01,48.000
8.05,133.66,48.300
8.1,134.56,48.600
8.15,135.77,48.900
8.2,136.82,49.200
8.25,137.88,49.500
8.3,138.83,49.800
8.35,139.9,50.100
8.4,141.17,50.400
8.45,142.04,50.700
8.5,142.62,51.000
8.55,143.12,51.300
8.6,135.82,51.600
8.65,131.09,51.900
8.7,129.74,52.200
8.75,128.94,52.500
8.8,127.9,52.800
8.85,125.61,53.100
8.9,114.08,53.400
8.95,106.37,53.700
9.0,103.99,54.000
9.05,102.59,54.300
9.1,101.61,54.600
9.15,98.22,54.900
9.2,97.86,55.200
9.25,98.27,55.500
9.3,99.11,55.800
9.35,100.01,56.100
9.4,100.27,56.400
9.45,100.28,56.700
9.5,99.7,57.000
9.55,99.79,57.300
9.6,99.41,57.600
9.65,99.28,57.900
9.7,99.53,58.200
9.75,99.99,58.500
9.8,100.58,58.800
9.85,100.33,59.100
9.9,100.61,59.400
9.95,100.7,59.700
10.0,100.72,60.000
10.05,100.21,60.300
10.1,96.74,60.600
10.15,94.56,60.900
10.2,93.71,61.200
10.25,91.85,61.500
10.3,86.99,61.800
10.35,47.53,62.100
10.4,45.32,62.400
10.45,43.47,62.700
10.5,41.83,63.000
10.55,40.93,63.300
10.6,38.42,63.600
10.65,36.79,63.900
10.7,34.99,64.200
10.75,33.44,64.500
10.8,32.31,64.800
10.85,32.18,65.100
10.9,31.87,65.400
10.95,31.72,65.700
11.0,31.58,66.000
11.05,31.13,66.300
11.1,30.85,66.600
11.15,30.49,66.900
11.2,30.45,67.200
11.25,30.28,67.500
11.3,30.04,67.800
11.35,30.09,68.100
11.4,30.49,68.400
11.45,30.42,68.700
11.5,30.56,69.000
11.55,30.78,69.300
11.6,30.78,69.600
11.65,30.63,69.900
11.7,30.81,70.200
11.75,30.72,70.500
11.8,30.96,70.800
11.85,30.69,71.100
11.9,30.89,71.400
11.95,31.11,71.700
12.0,31.18,72.000
12.05,31.13,72.300
12.1,31.44,72.600
12.15,31.74,72.900
12.2,31.87,73.200
12.25,31.84,73.500
12.3,31.85,73.800
12.35,32.11,74.100
12.4,32.25,74.400
12.45,32.6,74.700
12.5,32.97,75.000
12.55,33.2,75.300
12.6,33.77,75.600
12.65,33.86,75.900
12.7,33.91,76.200
12.75,34.13,76.500
12.8,34.22,76.800
12.85,34.3,77.100
12.9,34.32,77.400
12.95,34.53,77.700
13.0,34.66,78.000
13.05,35.05,78.300
13.1,35.15,78.600
13.15,35.58,78.900
13.2,35.75,79.200
13.25,36.14,79.500
13.3,36.42,79.800
13.35,36.51,80.100
13.4,36.6,80.400
13.45,36.68,80.700
13.5,36.73,81.000
13.55,36.71,81.300
13.6,36.61,81.600
13.65,36.59,81.900
13.7,36.57,82.200
13.75,36.65,82.500
13.8,36.42,82.800
13.85,35.66,83.100
13.9,35.17,83.400
13.95,34.66,83.700
14.0,34.45,84.000
14.05,33.54,84.300
14.09,28.46,84.600

File: SSP_2022-12-08_B5_OPER.csv
Crossheadmm,LoadN,Timesec
0.0,0.45,0.000
0.07,0.79,0.400
0.13,1.18,0.800
0.2,1.27,1.200
0.27,1.51,1.600
0.33,1.95,2.000
0.4,2.21,2.400
0.47,2.45,2.800
0.53,2.78,3.200
0.6,3.1,3.600
0.67,3.31,4.000
0.73,3.52,4.400
0.8,3.83,4.800
0.87,4.22,5.200
0.93,4.5,5.600
1.0,4.84,6.000
1.07,5.0,6.400
1.13,5.43,6.800
1.2,5.77,7.200
1.27,6.11,7.600
1.33,6.52,8.000
1.4,7.02,8.400
1.47,7.18,8.800
1.53,7.64,9.200
1.6,7.9,9.600
1.67,8.37,10.000
1.73,8.78,10.400
1.8,9.24,10.800
1.87,9.63,11.200
1.93,10.08,11.600
2.0,10.55,12.000
2.07,11.01,12.400
2.13,11.41,12.800
2.2,11.71,13.200
2.27,12.25,13.600
2.33,12.62,14.000
2.4,13.27,14.400
2.47,13.79,14.800
2.53,14.07,15.200
2.6,14.58,15.600
2.67,15.26,16.000
2.73,15.82,16.400
2.8,16.11,16.800
2.87,16.83,17.200
2.93,17.23,17.600
3.0,17.99,18.000
3.07,18.37,18.400
3.13,19.04,18.800
3.2,19.48,19.200
3.27,20.16,19.600
3.33,20.91,20.000
3.4,21.34,20.400
3.47,22.01,20.800
3.53,22.82,21.200
3.6,23.41,21.600
3.67,24.08,22.000
3.73,24.95,22.400
3.8,25.51,22.800
3.87,26.28,23.200
3.93,27.15,23.600
4.0,27.7,24.000
4.07,28.66,24.400
4.13,29.39,24.800
4.2,30.14,25.200
4.27,31.04,25.600
4.33,31.78,26.000
4.4,32.79,26.400
4.47,33.37,26.800
4.53,34.23,27.200
4.6,35.2,27.600
4.67,36.03,28.000
4.73,36.81,28.400
4.8,37.39,28.800
4.87,37.79,29.200
4.93,38.7,29.600
5.0,39.39,30.000
5.07,40.01,30.400
5.13,40.89,30.800
5.2,41.69,31.200
5.27,42.64,31.600
5.33,42.96,32.000
5.4,43.67,32.400
5.47,44.53,32.800
5.53,45.42,33.200
5.6,46.76,33.600
5.67,48.07,34.000
5.73,49.65,34.400
5.8,51.39,34.800
5.87,53.1,35.200
5.93,54.87,35.600
6.0,56.54,36.000
6.07,58.47,36.400
6.13,60.25,36.800
6.2,62.41,37.200
6.27,63.95,37.600
6.33,66.07,38.000
6.4,68.24,38.400
6.47,70.47,38.800
6.53,72.97,39.200
6.6,75.67,39.600
6.67,78.09,40.000
6.73,80.84,40.400
6.8,83.58,40.800
6.87,86.25,41.200
6.93,88.96,41.600
7.0,91.61,42.000
7.07,94.29,42.400
7.13,97.15,42.800
7.2,99.54,43.200
7.27,101.71,43.600
7.33,102.0,44.000
7.4,104.7,44.400
7.47,107.49,44.800
7.53,110.5,45.200
7.6,113.57,45.600
7.67,116.71,46.000
7.73,119.3,46.400
7.8,122.13,46.800
7.87,125.03,47.200
7.93,127.75,47.600
8.0,130.65,48.000
8.07,133.49,48.400
8.13,136.48,48.800
8.2,139.66,49.200
8.27,142.7,49.600
8.33,145.92,50.000
8.4,148.8,50.400
8.47,151.71,50.800
8.53,154.16,51.200
8.6,157.25,51.600
8.67,159.94,52.000
8.73,162.01,52.400
8.8,164.63,52.800
8.87,167.39,53.200
8.93,170.48,53.600
9.0,108.17,54.000
9.07,101.48,54.400
9.13,101.72,54.800
9.2,102.88,55.200
9.27,103.43,55.600
9.33,104.99,56.000
9.4,106.92,56.400
9.47,108.75,56.800
9.53,110.62,57.200
9.6,112.42,57.600
9.67,113.92,58.000
9.73,114.48,58.400
9.8,106.4,58.800
9.87,103.53,59.200
9.93,103.76,59.600
10.0,104.43,60.000
10.07,103.77,60.400
10.13,104.26,60.800
10.2,105.21,61.200
10.27,105.79,61.600
10.33,106.31,62.000
10.4,107.02,62.400
10.47,107.93,62.800
10.53,109.04,63.200
10.6,110.39,63.600
10.67,105.32,64.000
10.73,96.64,64.400
10.8,97.41,64.800
10.87,98.71,65.200
10.93,98.97,65.600
11.0,99.27,66.000
11.07,99.64,66.400
11.13,92.02,66.800
11.2,91.42,67.200
11.27,92.1,67.600
11.33,93.18,68.000
11.4,94.45,68.400
11.47,95.01,68.800
11.53,95.36,69.200
11.6,95.27,69.600
11.67,93.05,70.000
11.73,88.69,70.400
11.8,81.53,70.800
11.87,79.45,71.200
11.93,79.16,71.600
12.0,78.32,72.000
12.07,78.43,72.400
12.13,71.78,72.800
12.2,69.76,73.200
12.27,68.14,73.600
12.33,66.94,74.000
12.4,66.7,74.400
12.47,66.34,74.800
12.53,66.12,75.200
12.6,63.86,75.600
12.67,63.01,76.000
12.73,62.42,76.400
12.8,61.38,76.800
12.87,58.46,77.200
12.93,57.55,77.600
13.0,56.79,78.000
13.07,56.35,78.400
13.13,55.97,78.800
13.2,55.92,79.200
13.27,55.63,79.600
13.33,55.22,80.000
13.4,54.89,80.400
13.47,54.25,80.800
13.53,53.17,81.200
13.6,52.81,81.600
13.67,52.32,82.000
13.73,51.69,82.400
13.8,50.88,82.800
13.87,50.29,83.200
13.93,49.44,83.600
14.0,48.36,84.000
14.07,47.78,84.400
14.13,47.49,84.800
14.2,46.97,85.200
14.27,46.53,85.600
14.33,46.06,86.000
14.4,45.34,86.400
14.47,45.14,86.800
14.53,44.63,87.200
14.6,44.35,87.600
14.67,44.01,88.000
14.73,43.86,88.400
14.8,43.55,88.800
14.87,42.04,89.200
14.93,40.22,89.600
15.0,39.42,90.000
15.07,38.77,90.400
15.13,37.94,90.800
15.2,36.72,91.200
15.27,36.16,91.600
15.33,35.36,92.000
15.4,34.97,92.400
15.47,34.34,92.800

File: SSP_2022-12-08_B10_OPER.csv
Crossheadmm,LoadN,Timesec
0.0,0.19,0.000
0.02,0.13,0.200
0.04,0.24,0.400
0.05,0.26,0.600
0.07,0.21,0.800
0.09,0.22,1.000
0.1,0.2,1.200
0.12,0.37,1.400
0.14,0.41,1.600
0.15,0.39,1.800
0.17,0.3,2.000
0.19,0.45,2.200
0.2,0.51,2.400
0.22,0.57,2.600
0.24,0.7,2.800
0.25,0.77,3.000
0.27,0.88,3.200
0.29,0.8,3.400
0.3,0.88,3.600
0.32,0.9,3.800
0.34,1.09,4.000
0.35,1.09,4.200
0.37,1.19,4.400
0.39,1.27,4.600
0.4,1.45,4.800
0.42,1.4,5.000
0.44,1.53,5.200
0.45,1.66,5.400
0.47,1.74,5.600
0.49,1.88,5.800
0.5,1.96,6.000
0.52,2.01,6.200
0.54,2.25,6.400
0.55,2.49,6.600
0.57,2.48,6.800
0.59,2.52,7.000
0.6,2.67,7.200
0.62,3.03,7.400
0.64,3.02,7.600
0.65,3.16,7.800
0.67,3.38,8.000
0.69,3.55,8.200
0.7,3.72,8.400
0.72,3.75,8.600
0.74,4.04,8.800
0.75,4.07,9.000
0.77,4.25,9.200
0.79,4.59,9.400
0.8,4.65,9.600
0.82,4.9,9.800
0.84,5.0,10.000
0.85,5.25,10.200
0.87,5.25,10.400
0.89,5.49,10.600
0.9,5.61,10.800
0.92,5.73,11.000
0.94,5.89,11.200
0.95,6.19,11.400
0.97,6.39,11.600
0.99,6.43,11.800
1.0,6.76,12.000
1.02,6.83,12.200
1.04,7.11,12.400
1.05,7.38,12.600
1.07,7.7,12.800
1.09,8.0,13.000
1.1,8.11,13.200
1.12,8.35,13.400
1.14,8.7,13.600
1.15,8.89,13.800
1.17,9.15,14.000
1.19,9.61,14.200
1.2,9.92,14.400
1.22,10.19,14.600
1.24,10.4,14.800
1.25,10.82,15.000
1.27,11.06,15.200
1.29,11.59,15.400
1.3,11.81,15.600
1.32,12.11,15.800
1.34,12.44,16.000
1.35,12.85,16.200
1.37,13.13,16.400
1.39,13.23,16.600
1.4,13.64,16.800
1.42,13.95,17.000
1.44,14.2,17.200
1.45,14.48,17.400
1.47,14.82,17.600
1.49,15.17,17.800
1.5,15.58,18.000
1.52,15.81,18.200
1.54,16.02,18.400
1.55,16.45,18.600
1.57,17.0,18.800
1.59,17.17,19.000
1.6,17.51,19.200
1.62,17.83,19.400
1.64,18.27,19.600
1.65,18.69,19.800
1.67,19.08,20.000
1.69,19.5,20.200
1.7,19.79,20.400
1.72,20.33,20.600
1.74,20.7,20.800
1.75,21.39,21.000
1.77,21.8,21.200
1.79,22.42,21.400
1.8,22.96,21.600
1.82,23.53,21.800
1.84,24.09,22.000
1.85,24.5,22.200
1.87,25.24,22.400
1.89,25.86,22.600
1.9,26.36,22.800
1.92,26.75,23.000
1.94,27.41,23.200
1.95,28.01,23.400
1.97,28.54,23.600
1.99,29.07,23.800
2.0,29.55,24.000
2.02,30.19,24.200
2.04,30.75,24.400
2.05,31.41,24.600
2.07,31.94,24.800
2.09,32.51,25.000
2.1,33.18,25.200
2.12,33.73,25.400
2.14,34.25,25.600
2.15,35.08,25.800
2.17,35.57,26.000
2.19,36.28,26.200
2.2,37.06,26.400
2.22,37.76,26.600
2.24,38.4,26.800
2.25,39.13,27.000
2.27,39.8,27.200
2.29,40.5,27.400
2.3,41.09,27.600
2.32,41.86,27.800
2.34,42.57,28.000
2.35,43.21,28.200
2.37,44.05,28.400
2.39,44.75,28.600
2.4,45.39,28.800
2.42,46.19,29.000
2.44,46.84,29.200
2.45,47.63,29.400
2.47,48.34,29.600
2.49,49.04,29.800
2.5,49.65,30.000
2.52,49.97,30.200
2.54,50.35,30.400
2.55,51.02,30.600
2.57,51.65,30.800
2.59,52.29,31.000
2.6,52.95,31.200
2.62,53.65,31.400
2.64,54.23,31.600
2.65,55.0,31.800
2.67,55.63,32.000
2.69,56.11,32.200
2.7,56.82,32.400
2.72,57.11,32.600
2.74,57.7,32.800
2.75,58.48,33.000
2.77,59.05,33.200
2.79,59.71,33.400
2.8,60.13,33.600
2.82,60.7,33.800
2.84,61.4,34.000
2.85,61.72,34.200
2.87,62.02,34.400
2.89,62.43,34.600
2.9,62.38,34.800
2.92,62.82,35.000
2.94,63.14,35.200
2.95,63.78,35.400
2.97,64.1,35.600
2.99,64.66,35.800
3.0,64.73,36.000
3.02,65.04,36.200
3.04,65.42,36.400
3.05,65.83,36.600
3.07,66.09,36.800
3.09,66.58,37.000
3.1,66.81,37.200
3.12,66.99,37.400
3.14,67.26,37.600
3.15,67.76,37.800
3.17,68.08,38.000
3.19,68.55,38.200
3.2,68.47,38.400
3.22,69.13,38.600
3.24,69.3,38.800
3.25,69.64,39.000
3.27,70.15,39.200
3.29,70.55,39.400
3.3,70.74,39.600
3.32,70.69,39.800
3.34,71.05,40.000
3.35,70.9,40.200
3.37,70.94,40.400
3.39,70.92,40.600
3.4,71.08,40.800
3.42,71.45,41.000
3.44,71.75,41.200
3.45,72.17,41.400
3.47,72.29,41.600
3.49,72.13,41.800
3.5,72.03,42.000
3.52,71.69,42.200
3.54,71.7,42.400
3.55,71.63,42.600
3.57,68.64,42.800
3.59,67.11,43.000
3.6,66.23,43.200
3.62,65.82,43.400
3.64,65.44,43.600
3.65,65.15,43.800
3.67,64.44,44.000
3.69,63.84,44.200
3.7,63.42,44.400
3.72,63.17,44.600
3.74,62.44,44.800
3.75,62.26,45.000
3.77,61.66,45.200
3.79,58.58,45.400
3.8,54.14,45.600
3.82,49.96,45.800
3.84,48.65,46.000
3.85,48.17,46.200
3.87,46.93,46.400
3.89,40.79,46.600
3.9,40.15,46.800
3.92,39.91,47.000
3.94,39.79,47.200
3.96,39.79,47.400
3.98,39.76,47.600
3.99,39.6,47.800
4.01,39.39,48.000
4.03,38.98,48.200
4.04,38.81,48.400
4.06,38.73,48.600
4.08,38.67,48.800
4.09,35.74,49.000
4.11,34.31,49.200
4.13,32.73,49.400
4.14,32.37,49.600
4.16,32.17,49.800
4.18,32.02,50.000
4.19,32.07,50.200
4.21,31.92,50.400
4.23,31.72,50.600
4.24,31.58,50.800
4.26,31.34,51.000
4.28,31.11,51.200
4.29,31.14,51.400
4.31,31.2,51.600
4.33,31.2,51.800
4.34,30.98,52.000
4.36,30.78,52.200
4.38,30.55,52.400
4.39,30.26,52.600
4.41,30.04,52.800
4.43,30.01,53.000
4.45,29.92,53.200
4.47,29.75,53.400
4.49,29.67,53.600
4.5,29.34,53.800
4.52,29.19,54.000
4.54,29.08,54.200
4.56,28.96,54.400
4.58,28.71,54.600
4.59,28.44,54.800
4.61,28.24,55.000
4.63,24.74,55.200
4.64,20.87,55.400
4.66,19.6,55.600
4.68,18.87,55.800
4.69,18.24,56.000
4.71,17.85,56.200
4.73,17.54,56.400
4.74,17.19,56.600
4.76,16.94,56.800
4.78,16.53,57.000
4.79,16.39,57.200
4.81,16.26,57.400
4.83,16.02,57.600
4.85,15.86,57.800
4.87,15.71,58.000
4.89,15.59,58.200
4.9,15.47,58.400
4.92,15.24,58.600
4.94,15.09,58.800
4.95,14.32,59.000

File: SSP_2022-12-17_B7_NO.csv
Crossheadmm,LoadN,Timesec
0.0,0.0,0.000
0.04,1.0,0.100
0.07,1.0,0.200
0.1,1.0,0.300
0.14,1.0,0.400
0.17,1.0,0.500
0.2,1.0,0.600
0.23,1.0,0.700
0.27,1.0,0.800
0.3,1.0,0.900
0.34,1.0,1.000
0.37,1.0,1.100
0.4,2.0,1.200
0.44,2.0,1.300
0.47,2.0,1.400
0.5,2.0,1.500
0.53,2.0,1.600
0.57,2.0,1.700
0.6,2.0,1.800
0.64,2.0,1.900
0.67,3.0,2.000
0.7,3.0,2.100
0.73,4.0,2.200
0.77,4.0,2.300
0.8,4.0,2.400
0.83,4.0,2.500
0.87,5.0,2.600
0.9,5.0,2.700
0.94,6.0,2.800
0.97,7.0,2.900
1.0,7.0,3.000
1.04,8.0,3.100
1.07,9.0,3.200
1.1,9.0,3.300
1.13,10.0,3.400
1.17,11.0,3.500
1.2,12.0,3.600
1.23,13.0,3.700
1.27,14.0,3.800
1.3,15.0,3.900
1.34,16.0,4.000
1.37,17.0,4.100
1.4,18.0,4.200
1.44,19.0,4.300
1.47,21.0,4.400
1.5,22.0,4.500
1.53,23.0,4.600
1.57,24.0,4.700
1.6,25.0,4.800
1.64,26.0,4.900
1.67,27.0,5.000
1.7,29.0,5.100
1.73,31.0,5.200
1.77,32.0,5.300
1.8,33.0,5.400
1.83,34.0,5.500
1.87,36.0,5.600
1.9,38.0,5.700
1.93,40.0,5.800
1.97,41.0,5.900
2.0,43.0,6.000
2.04,45.0,6.100
2.07,48.0,6.200
2.1,50.0,6.300
2.13,52.0,6.400
2.17,55.0,6.500
2.2,58.0,6.600
2.23,60.0,6.700
2.27,64.0,6.800
2.3,67.0,6.900
2.33,71.0,7.000
2.37,74.0,7.100
2.4,78.0,7.200
2.44,82.0,7.300
2.47,84.0,7.400
2.5,89.0,7.500
2.53,93.0,7.600
2.57,97.0,7.700
2.6,101.0,7.800
2.63,106.0,7.900
2.67,111.0,8.000
2.7,116.0,8.100
2.73,121.0,8.200
2.77,126.0,8.300
2.8,132.0,8.400
2.83,138.0,8.500
2.87,142.0,8.600
2.9,147.0,8.700
2.93,150.0,8.800
2.97,153.0,8.900
3.0,154.0,9.000
3.03,156.0,9.100
3.07,160.0,9.200
3.1,165.0,9.300
3.13,171.0,9.400
3.17,178.0,9.500
3.2,184.0,9.600
3.23,191.0,9.700
3.27,199.0,9.800
3.3,207.0,9.900
3.33,215.0,10.000
3.37,223.0,10.100
3.4,231.0,10.200
3.43,239.0,10.300
3.47,247.0,10.400
3.5,255.0,10.500
3.53,264.0,10.600
3.57,273.0,10.700
3.6,283.0,10.800
3.63,294.0,10.900
3.67,303.0,11.000
3.7,313.0,11.100
3.73,324.0,11.200
3.77,333.0,11.300
3.8,343.0,11.400
3.83,354.0,11.500
3.87,364.0,11.600
3.9,374.0,11.700
3.93,385.0,11.800
3.97,395.0,11.900
4.0,405.0,12.000
4.03,414.0,12.100
4.07,424.0,12.200
4.1,435.0,12.300
4.13,445.0,12.400
4.17,455.0,12.500
4.2,465.0,12.600
4.23,475.0,12.700
4.27,485.0,12.800
4.3,493.0,12.900
4.33,501.0,13.000
4.37,509.0,13.100
4.4,515.0,13.200
4.43,518.0,13.300
4.47,520.0,13.400
4.5,518.0,13.500
4.53,521.0,13.600
4.56,529.0,13.700
4.6,534.0,13.800
4.63,542.0,13.900
4.67,551.0,14.000
4.7,560.0,14.100
4.73,568.0,14.200
4.77,577.0,14.300
4.8,586.0,14.400
4.83,591.0,14.500
4.87,597.0,14.600
4.9,603.0,14.700
4.93,610.0,14.800
4.97,618.0,14.900
5.0,624.0,15.000
5.03,630.0,15.100
5.06,623.0,15.200
5.1,613.0,15.300
5.13,615.0,15.400
5.16,621.0,15.500
5.2,627.0,15.600
5.23,632.0,15.700
5.27,638.0,15.800
5.3,645.0,15.900
5.33,649.0,16.000
5.37,650.0,16.100
5.4,653.0,16.200
5.43,610.0,16.300
5.46,4.0,16.400

File: SSP_2022-12-17_B9_NO.csv
Crossheadmm,LoadN,Timesec
0.0,0.0,0.000
0.03,1.0,0.100
0.06,2.0,0.200
0.08,2.0,0.300
0.11,3.0,0.400
0.15,4.0,0.500
0.18,4.0,0.600
0.21,5.0,0.700
0.25,5.0,0.800
0.28,6.0,0.900
0.31,7.0,1.000
0.35,7.0,1.100
0.38,7.0,1.200
0.41,8.0,1.300
0.45,9.0,1.400
0.48,9.0,1.500
0.52,9.0,1.600
0.55,10.0,1.700
0.58,10.0,1.800
0.61,11.0,1.900
0.65,12.0,2.000
0.68,12.0,2.100
0.71,13.0,2.200
0.75,13.0,2.300
0.78,14.0,2.400
0.81,14.0,2.500
0.85,14.0,2.600
0.88,15.0,2.700
0.91,15.0,2.800
0.95,16.0,2.900
0.98,16.0,3.000
1.01,17.0,3.100
1.05,18.0,3.200
1.08,19.0,3.300
1.11,19.0,3.400
1.15,20.0,3.500
1.18,20.0,3.600
1.21,21.0,3.700
1.25,21.0,3.800
1.28,22.0,3.900
1.31,22.0,4.000
1.35,23.0,4.100
1.38,23.0,4.200
1.41,23.0,4.300
1.45,24.0,4.400
1.48,25.0,4.500
1.52,25.0,4.600
1.55,26.0,4.700
1.58,27.0,4.800
1.61,29.0,4.900
1.65,30.0,5.000
1.68,31.0,5.100
1.71,32.0,5.200
1.75,32.0,5.300
1.78,34.0,5.400
1.81,34.0,5.500
1.85,36.0,5.600
1.88,36.0,5.700
1.91,38.0,5.800
1.95,39.0,5.900
1.98,41.0,6.000
2.01,42.0,6.100
2.05,43.0,6.200
2.08,45.0,6.300
2.11,47.0,6.400
2.15,49.0,6.500
2.18,51.0,6.600
2.21,53.0,6.700
2.25,55.0,6.800
2.28,58.0,6.900
2.31,60.0,7.000
2.35,64.0,7.100
2.38,67.0,7.200
2.41,69.0,7.300
2.45,73.0,7.400
2.48,77.0,7.500
2.51,80.0,7.600
2.55,84.0,7.700
2.58,89.0,7.800
2.61,93.0,7.900
2.65,97.0,8.000
2.68,101.0,8.100
2.71,106.0,8.200
2.74,110.0,8.300
2.78,115.0,8.400
2.81,119.0,8.500
2.85,124.0,8.600
2.88,130.0,8.700
2.91,135.0,8.800
2.95,141.0,8.900
2.98,148.0,9.000
3.01,155.0,9.100
3.05,162.0,9.200
3.08,169.0,9.300
3.11,176.0,9.400
3.15,184.0,9.500
3.18,193.0,9.600
3.21,200.0,9.700
3.25,208.0,9.800
3.28,218.0,9.900
3.31,226.0,10.000
3.35,235.0,10.100
3.38,244.0,10.200
3.41,253.0,10.300
3.45,263.0,10.400
3.48,272.0,10.500
3.51,192.0,10.600
3.55,213.0,10.700
3.58,232.0,10.800
3.61,248.0,10.900
3.64,264.0,11.000
3.68,278.0,11.100
3.71,291.0,11.200
3.74,305.0,11.300
3.78,317.0,11.400
3.81,329.0,11.500
3.85,338.0,11.600
3.88,348.0,11.700
3.91,358.0,11.800
3.95,368.0,11.900
3.98,379.0,12.000
4.01,389.0,12.100
4.04,399.0,12.200
4.08,387.0,12.300
4.11,276.0,12.400
4.14,279.0,12.500
4.18,287.0,12.600
4.21,290.0,12.700
4.24,296.0,12.800
4.28,301.0,12.900
4.31,309.0,13.000
4.35,320.0,13.100
4.38,331.0,13.200
4.41,340.0,13.300
4.44,349.0,13.400
4.48,357.0,13.500
4.51,366.0,13.600
4.54,375.0,13.700
4.58,384.0,13.800
4.61,394.0,13.900
4.64,401.0,14.000
4.68,411.0,14.100
4.71,420.0,14.200
4.74,431.0,14.300
4.78,442.0,14.400
4.81,451.0,14.500
4.85,456.0,14.600
4.88,464.0,14.700
4.91,473.0,14.800
4.94,482.0,14.900
4.98,491.0,15.000
5.01,499.0,15.100
5.04,449.0,15.200
5.08,330.0,15.300