Folder: SSPProjectEK/Data/Selected_data (part 3)

File: SSP_2025-03-17_D3_OPER.csv
Crossheadmm,LoadN,Timesec
0.0349,0.450457,0.116
0.1682,0.622625,0.516
0.3017,0.581869,0.916
0.435,0.738324,1.316
0.5687,0.921577,1.716
0.7018,1.06537,2.116
0.8353,1.36636,2.516
0.9683,1.61265,2.916
1.102,1.9741,3.316
1.2351,2.54976,3.716
1.3686,3.01805,4.116
1.5016,3.53495,4.516
1.6349,4.23929,4.916
1.7684,4.98567,5.316
1.9016,5.77328,5.716
2.0349,6.68506,6.116
2.1684,7.74836,6.516
2.3017,8.56355,6.916
2.435,9.6843,7.316
2.568,10.6709,7.716
2.7015,11.9242,8.116
2.8347,12.9136,8.516
2.9684,14.058,8.916
3.1015,13.7585,9.316
3.235,14.708,9.716
3.3681,15.6599,10.116
3.5017,15.7256,10.516
3.635,16.0163,10.916
3.7684,16.8702,11.316
3.9016,17.9058,11.716
4.0349,18.8167,12.116
4.1685,20.1521,12.516
4.3017,21.3195,12.916
4.435,22.7608,13.316
4.5686,24.2002,13.716
4.7018,25.2923,14.116
4.8353,26.9534,14.516
4.9683,28.511,14.916
5.1018,30.2414,15.316
5.2351,32.1365,15.716
5.3687,34.0625,16.116
5.5018,36.018,16.516
5.6353,37.7681,16.916
5.7684,35.3346,17.316
5.9019,34.3175,17.716
6.0353,36.3458,18.116
6.1685,36.7747,18.516
6.3017,38.5759,18.916
6.4349,39.5345,19.316
6.5685,39.8481,19.716
6.7016,40.557,20.116
6.8349,42.2794,20.516
6.9683,41.4854,20.916
7.1016,33.6779,21.316
7.235,32.783,21.716
7.3679,31.3886,22.116
7.5014,30.9032,22.516
7.6347,31.0029,22.916
7.7682,31.3332,23.316
7.9016,31.5928,23.716
8.035,30.3509,24.116
8.1681,29.8869,24.516
8.3017,29.8128,24.916
8.4351,29.2157,25.316
8.5682,29.3014,25.716
8.7016,29.613,26.116
8.835,29.9264,26.516
8.9686,29.6403,26.916
9.1017,29.4919,27.316
9.235,29.5252,27.716
9.3686,28.9174,28.116
9.5019,28.1401,28.516
9.6353,27.5409,28.916
9.7683,26.9823,29.316
9.9018,26.7422,29.716
10.0353,26.4785,30.116
10.1687,22.9386,30.516
10.302,20.4901,30.916
10.4354,16.9195,31.316
10.5685,15.5502,31.716
10.702,15.3382,32.116
10.8354,14.909,32.516
10.9684,13.3141,32.916
11.1016,13.2393,33.316
11.2349,13.4682,33.716
11.3684,13.7763,34.116
11.5014,13.9478,34.516
11.6347,14.1203,34.916
11.7682,14.3164,35.316
11.9016,13.7425,35.716
12.035,13.762,36.116
12.168,13.777,36.516
12.3015,13.8644,36.916
12.4349,13.4725,37.316
12.5682,13.8062,37.716
12.7016,13.5841,38.116
12.8349,13.5159,38.516
12.9682,13.4656,38.916
13.1017,13.4811,39.316
13.2352,13.565,39.716
13.3682,13.6602,40.116
13.5017,13.6111,40.516
13.635,12.8963,40.916
13.7687,12.8002,41.316
13.9018,12.7575,41.716
14.035,12.9857,42.116
14.1686,12.9561,42.516
14.302,13.1669,42.916
14.4354,13.2177,43.316
14.5685,13.2491,43.716
14.7019,13.2909,44.116
14.8353,10.3002,44.516
14.9686,10.4357,44.916
15.102,10.3699,45.316
15.2352,10.5457,45.716
15.3684,10.5689,46.116
15.5018,10.5515,46.516
15.6353,10.5802,46.916
15.7681,10.452,47.316
15.9016,10.3887,47.716
16.0348,10.0357,48.116
16.1684,9.92155,48.516
16.3015,9.6402,48.916
16.4347,9.61315,49.316
16.5682,9.63174,49.716
16.7017,9.36747,50.116
16.8349,9.23379,50.516
16.9681,9.27149,50.916
17.1015,9.19226,51.316
17.2349,9.06823,51.716
17.3682,9.16626,52.116
17.5016,9.19178,52.516
17.6349,8.99706,52.916
17.7682,9.03556,53.316
17.9017,9.03393,53.716
18.0352,8.67952,54.116
18.1681,8.53423,54.516
18.3018,8.4588,54.916
18.4351,8.30583,55.316
18.5688,8.12999,55.716
18.7019,8.07727,56.116
18.8351,8.04345,56.516
18.9686,8.0894,56.916
19.1021,7.92483,57.316
19.2353,7.90553,57.716
19.3685,7.67275,58.116
19.5019,7.69155,58.516
19.6352,7.46826,58.916
19.7685,7.44342,59.316
19.902,7.37346,59.716
20.0352,7.39069,60.116
20.1684,7.33531,60.516
20.3018,7.43892,60.916
20.4354,7.28185,61.316
20.5682,7.09211,61.716
20.7017,7.00929,62.116
20.8349,7.16936,62.516
20.9685,6.89206,62.916
21.1016,6.75631,63.316
21.2347,6.83212,63.716
21.3683,6.8298,64.116
21.5018,6.86413,64.516
21.6349,6.80956,64.916
21.7682,6.94477,65.316
21.9016,6.8908,65.716
22.035,6.87382,66.116
22.1683,6.92399,66.516
22.3018,7.05406,66.916
22.435,7.09245,67.316
22.5684,7.08137,67.716
22.7017,7.04729,68.116
22.8353,7.03067,68.516
22.9683,6.94325,68.916
23.1019,7.04594,69.316
23.2353,6.73357,69.716
23.3688,6.5746,70.116
23.5019,6.40893,70.516
23.6351,6.38612,70.916
23.7685,6.29314,71.316
23.9021,6.13143,71.716
24.0352,5.80454,72.116
24.1686,5.48797,72.516
24.3018,5.17613,72.916
24.4352,4.96612,73.316
24.5684,4.66578,73.716
24.7019,4.46181,74.116
24.8351,4.18537,74.516
24.9684,3.62685,74.916
25.1016,3.60737,75.316
25.2352,3.35157,75.716
25.368,3.27951,76.116
25.5015,3.07188,76.516
25.6349,3.03775,76.916
25.7684,3.22921,77.316
25.9014,3.12874,77.716
26.0346,3.157,78.116
26.1681,3.21475,78.516
26.3017,3.10098,78.916
26.4349,3.12554,79.316
26.5684,3.10901,79.716
26.7017,3.04874,80.116
26.8351,3.08663,80.516
26.9683,2.94499,80.916
27.1019,2.88701,81.316
27.2351,2.81414,81.716
27.3685,2.84009,82.116
27.5017,2.81256,82.516
27.6353,2.89975,82.916
27.7682,2.8773,83.316
27.9019,2.87912,83.716
28.0351,2.90304,84.116
28.1688,2.9212,84.516
28.3018,2.97282,84.916
28.435,2.96174,85.316
28.5684,2.92755,85.716
28.7021,2.90547,86.116
28.8351,2.86791,86.516
28.9686,2.95166,86.916
29.1018,2.94059,87.316
29.2351,2.92874,87.716
29.3682,3.05586,88.116
29.5018,2.97089,88.516
29.6349,3.02251,88.916
29.7684,3.02576,89.316
29.9014,2.97134,89.716
30.0351,3.02403,90.116
30.1679,3.05999,90.516
30.3015,2.92475,90.916
30.4347,2.89603,91.316
30.5684,2.81021,91.716
30.7014,2.79031,92.116
30.8348,2.68942,92.516
30.9681,2.68641,92.916
31.1019,2.69917,93.316
31.2349,2.60652,93.716
31.3687,2.43016,94.116
31.5018,2.47629,94.516
31.6353,2.45069,94.916
31.7682,2.30079,95.316
31.9019,2.23278,95.716
32.0351,2.3698,96.116
32.1686,1.97642,96.516
32.3016,0.997847,96.916
32.4354,0.89912,97.316
32.5682,0.942582,97.716
32.7019,0.881414,98.116
32.8351,0.781685,98.516
32.9689,0.782789,98.916
33.1017,0.633904,99.316
33.2352,0.673041,99.716
33.3683,0.625242,100.116
33.502,0.694424,100.516
33.5352,0.530408,100.616

File: SSP_2025-03-18_D4_NO.csv
Crossheadmm,LoadN,Timesec
0.0336,11.7043,0.112
0.1003,16.1562,0.312
0.1672,20.042,0.512
0.2338,23.41,0.712
0.3006,26.713,0.912
0.367,30.4845,1.112
0.4338,35.1699,1.312
0.5006,39.9921,1.512
0.5672,45.4538,1.712
0.6336,51.3304,1.912
0.7004,56.1667,2.112
0.7673,60.9283,2.312
0.8341,66.5046,2.512
0.9002,72.9403,2.712
0.9673,76.5524,2.912
1.0341,75.9861,3.112
1.101,77.3858,3.312
1.1669,86.9016,3.512
1.2339,96.6767,3.712
1.3008,106.412,3.912
1.3674,116.609,4.112
1.4339,126.915,4.312
1.5006,137.638,4.512
1.5674,148.534,4.712
1.6342,158.764,4.912
1.7006,170.238,5.112
1.7673,181.551,5.312
1.8343,192.526,5.512
1.9007,203.66,5.712
1.9671,215.007,5.912
2.034,226.703,6.112
2.1009,238.398,6.312
2.1672,249.512,6.512
2.2339,260.676,6.712
2.3006,269.034,6.912
2.3678,276.392,7.112
2.4339,284.622,7.312
2.5006,293.293,7.512
2.5673,301.964,7.712
2.6339,310.37,7.912
2.7008,318.557,8.112
2.7672,325.023,8.312
2.8339,332.111,8.512
2.9008,339.419,8.712
2.9673,345.819,8.912
3.0338,351.405,9.112
3.1003,357.177,9.312
3.1673,363.183,9.512
3.2339,368.419,9.712
3.3001,374.062,9.912
3.367,379.505,10.112
3.4339,383.365,10.312
3.5006,387.721,10.512
3.5666,392.224,10.712
3.6334,397.088,10.912
3.7004,401.379,11.112
3.767,404.608,11.312
3.8336,308.986,11.512
3.9003,298.836,11.712
3.9671,260.103,11.912
4.0339,263.92,12.112
4.1002,273.765,12.312
4.167,283.376,12.512
4.2339,293.294,12.712
4.3004,257.871,12.912
4.3667,266.381,13.112
4.4336,275.995,13.312
4.5005,285.785,13.512
4.5668,280.774,13.712
4.6335,284.042,13.912
4.7003,290.514,14.112
4.7673,296.69,14.312
4.8335,301.535,14.512
4.9002,307.8,14.712
4.9669,266.025,14.912
5.0336,262.829,15.112
5.1005,268.168,15.312
5.1669,273.265,15.512
5.2336,276.477,15.712
5.3005,280.241,15.912
5.3671,284.095,16.112
5.4336,248.826,16.312
5.5003,245.702,16.512
5.5674,243.194,16.712
5.634,244.549,16.912
5.7004,246.551,17.112
5.7673,249.006,17.312
5.8342,248.093,17.512
5.9011,249.044,17.712
5.9671,252.356,17.912
6.034,122.039,18.112
6.1009,115.416,18.312
6.1676,118.367,18.512
6.2341,119.31,18.712
6.3006,122.069,18.912
6.3675,124.139,19.112
6.4343,124.2,19.312
6.5006,125.447,19.512
6.5674,76.2828,19.712
6.6343,75.9121,19.912
6.7009,76.3766,20.112
6.7673,77.5155,20.312
6.8341,79.3061,20.512
6.9009,81.1493,20.712
6.9673,82.7267,20.912
7.0341,83.8546,21.112
7.1007,85.5081,21.312
7.1678,86.7214,21.512
7.234,86.5238,21.712
7.3006,84.9033,21.912
7.3672,81.6959,22.112
7.4339,81.7453,22.312
7.5008,81.1633,22.512
7.5673,79.8678,22.712
7.6338,78.9028,22.912
7.7008,79.1759,23.112
7.7673,78.9593,23.312
7.8338,77.675,23.512
7.9004,77.3694,23.712
7.9675,75.7142,23.912
8.0339,74.8892,24.112
8.1004,73.4111,24.312
8.1672,73.4296,24.512
8.2341,73.5484,24.712
8.3008,73.4673,24.912
8.3669,73.6786,25.112
8.4337,73.9283,25.312
8.5007,74.7591,25.512
8.5673,74.8773,25.712
8.6338,75.668,25.912
8.7004,76.3549,26.112
8.7673,77.0001,26.312
8.8341,77.1775,26.512
8.9004,77.948,26.712
8.967,78.0497,26.912
9.034,78.4963,27.112
9.1005,79.2781,27.312
9.1669,80.1534,27.512
9.2337,81.3479,27.712
9.3005,82.0858,27.912
9.3669,82.4046,28.112
9.4337,81.8923,28.312
9.5004,82.0835,28.512
9.5675,82.6388,28.712
9.6338,83.1473,28.912
9.7005,84.1687,29.112
9.7671,85.0613,29.312
9.8339,85.8704,29.512
9.9007,86.6924,29.712
9.9672,88.0092,29.912
10.0339,88.3432,30.112
10.1008,88.5696,30.312
10.1674,88.712,30.512
10.234,88.8504,30.712
10.3005,88.1687,30.912
10.3677,82.9634,31.112
10.434,81.6641,31.312
10.5007,81.4054,31.512
10.5674,81.9514,31.712
10.6345,81.1734,31.912
10.7009,79.7928,32.112
10.7673,78.7136,32.312
10.834,77.856,32.512
10.9009,73.5407,32.712
10.9676,62.9492,32.912
11.0341,60.8591,33.112
11.1007,60.2483,33.312
11.1676,59.8715,33.512
11.2344,60.4842,33.712
11.3007,60.5885,33.912
11.3673,61.0338,34.112
11.4343,53.9494,34.312
11.5008,53.5864,34.512
11.5673,53.3404,34.712
11.634,52.9279,34.912
11.7009,52.4714,35.112
11.7672,52.3243,35.312
11.834,52.3758,35.512
11.9007,52.2229,35.712
11.9677,52.1347,35.912
12.034,51.7616,36.112
12.1006,50.441,36.312
12.1672,50.6412,36.512
12.234,50.7084,36.712
12.3008,50.0603,36.912
12.3672,49.853,37.112
12.4339,48.6978,37.312
12.5008,47.8354,37.512
12.5673,46.9255,37.712
12.634,46.9615,37.912
12.7004,46.4087,38.112
12.7677,44.7185,38.312
12.8338,44.3387,38.512
12.9005,44.4812,38.712
12.9672,44.6683,38.912
13.0343,44.5288,39.112
13.1005,44.2177,39.312
13.167,44.3612,39.512
13.2337,44.6781,39.712
13.3007,43.9712,39.912
13.3673,43.6779,40.112
13.4338,45.7461,40.312
13.5003,42.7372,40.512
13.5673,41.1723,40.712
13.634,41.0848,40.912
13.7004,40.4434,41.112
13.7671,40.1835,41.312

File: SSP_2025-03-18_D5_NO.csv
Crossheadmm,LoadN,Timesec
0.0342,5.00684,0.115
0.0674,6.44708,0.215
0.101,8.20055,0.315
0.1343,9.79663,0.415
0.1677,11.1558,0.515
0.2011,12.5248,0.615
0.2344,14.2544,0.715
0.2678,15.7505,0.815
0.3012,17.3764,0.915
0.3345,18.7639,1.015
0.3678,20.4176,1.115
0.4011,21.9321,1.215
0.4344,23.4525,1.315
0.4678,25.0629,1.415
0.5011,26.4034,1.515
0.5344,28.2473,1.615
0.5676,29.4167,1.715
0.601,31.1512,1.815
0.6346,32.8043,1.915
0.6679,34.4594,2.015
0.7011,36.0239,2.115
0.7344,37.7983,2.215
0.7678,39.3756,2.315
0.8012,41.078,2.415
0.8345,42.8935,2.515
0.8679,44.8828,2.615
0.9013,46.5559,2.715
0.9346,48.7639,2.815
0.9679,50.6021,2.915
1.0013,52.9952,3.015
1.0345,54.6127,3.115
1.0678,56.8442,3.215
1.1012,58.7766,3.315
1.1349,60.8852,3.415
1.1681,63.0905,3.515
1.2012,65.4386,3.615
1.2346,67.7594,3.715
1.2681,70.4209,3.815
1.3014,72.6189,3.915
1.3348,75.3389,4.015
1.3681,77.9493,4.115
1.4017,80.4946,4.215
1.4352,83.2767,4.315
1.4679,85.9841,4.415
1.5011,88.8358,4.515
1.5345,91.572,4.615
1.568,94.5849,4.715
1.6014,97.7998,4.815
1.6347,100.796,4.915
1.668,104.138,5.015
1.7014,107.49,5.115
1.7348,110.718,5.215
1.7681,114.084,5.315
1.8014,117.289,5.415
1.8347,120.607,5.515
1.868,124.219,5.615
1.9012,127.807,5.715
1.9347,131.907,5.815
1.9682,135.269,5.915
2.0014,139.319,6.015
2.0347,142.586,6.115
2.068,146.557,6.215
2.1013,150.417,6.315
2.1347,154.064,6.415
2.1681,157.999,6.515
2.2013,161.75,6.615
2.2346,165.335,6.715
2.2679,169.219,6.815
2.3012,172.955,6.915
2.3347,177.254,7.015
2.3681,181.199,7.115
2.4013,185.15,7.215
2.4345,189.443,7.315
2.4677,193.708,7.415
2.501,198.519,7.515
2.5344,203.108,7.615
2.5679,207.835,7.715
2.6013,212.067,7.815
2.6345,216.495,7.915
2.668,220.96,8.015
2.7014,225.412,8.115
2.7346,230.07,8.215
2.7678,234.997,8.315
2.8011,239.689,8.415
2.8345,245.097,8.515
2.8679,250.211,8.615
2.9011,255.362,8.715
2.9345,260.85,8.815
2.9676,266.323,8.915
3.001,271.762,9.015
3.0345,277.858,9.115
3.0679,283.578,9.215
3.1011,289.465,9.315
3.1343,295.429,9.415
3.1677,301.272,9.515
3.2011,307.085,9.615
3.2345,313.018,9.715
3.2677,319.01,9.815
3.301,325.273,9.915
3.3343,331.263,10.015
3.3677,337.56,10.115
3.401,343.843,10.215
3.4342,350.471,10.315
3.4675,354.19,10.415
3.5009,360.792,10.515
3.5345,366.847,10.615
3.5677,370.102,10.715
3.6009,375.798,10.815
3.6342,382.341,10.915
3.6677,386.115,11.015
3.701,392.822,11.115
3.7343,399.555,11.215
3.7677,404.163,11.315
3.8013,410.983,11.415
3.8346,417.831,11.515
3.8674,424.583,11.615
3.9006,431.23,11.715
3.9341,437.011,11.815
3.9674,443.536,11.915
4.0009,449.911,12.015
4.0342,455.897,12.115
4.0674,462.225,12.215
4.1008,468.477,12.315
4.1342,474.861,12.415
4.1675,477.531,12.515
4.2009,481.439,12.615
4.2341,487.953,12.715
4.2674,494.51,12.815
4.3007,500.747,12.915
4.3341,506.858,13.015
4.3676,501.677,13.115
4.4008,507.202,13.215
4.4341,513.221,13.315
4.4674,516.573,13.415
4.5007,518.486,13.515
4.5347,1.86229,13.615
4.5679,0.793172,13.715
4.6011,0.694082,13.815
4.6344,1.02761,13.915
4.6678,1.15266,14.015
4.7011,1.25316,14.115
4.7346,1.13616,14.215
4.7679,1.28383,14.315
4.8011,1.155,14.415
4.8344,1.25477,14.515
4.8676,1.6155,14.615
4.9009,1.75531,14.715
4.9344,1.88239,14.815
4.9679,1.91805,14.915
5.0012,1.89474,15.015
5.0345,2.17304,15.115
5.068,2.25489,15.215
5.1014,2.38089,15.315
5.1346,2.49894,15.415
5.1679,2.70305,15.515
5.2013,2.95118,15.615
5.2347,3.02996,15.715
5.2681,3.22877,15.815
5.3014,3.23473,15.915
5.3347,3.68459,16.015
5.3678,3.51867,16.115
5.4013,3.60964,16.215

File: SSP_2025-03-18_D5_OPER.csv
Crossheadmm,LoadN,Timesec
0.0337,2.22988,0.112
0.1335,0.660575,0.412
0.2337,0.875329,0.712
0.3337,2.09571,1.012
0.4336,3.69675,1.312
0.5337,5.05535,1.612
0.6335,6.3632,1.912
0.7335,7.52283,2.212
0.8335,8.15536,2.512
0.9335,8.84016,2.812
1.0334,9.86838,3.112
1.1336,10.8609,3.412
1.2335,12.0554,3.712
1.3334,13.4291,4.012
1.4335,14.6917,4.312
1.5335,15.9631,4.612
1.634,17.2607,4.912
1.7335,18.1062,5.212
1.8336,19.3079,5.512
1.9338,20.8755,5.812
2.0338,22.666,6.112
2.1336,24.8674,6.412
2.2338,27.4644,6.712
2.3338,29.4804,7.012
2.4337,32.0461,7.312
2.5336,34.6329,7.612
2.6336,36.8694,7.912
2.7338,39.2297,8.212
2.8337,41.5395,8.512
2.9339,42.6724,8.812
3.0338,43.3276,9.112
3.1337,43.9836,9.412
3.2336,45.7611,9.712
3.3338,47.5361,10.012
3.4338,49.2971,10.312
3.5338,51.8122,10.612
3.6337,54.2828,10.912
3.7336,56.9684,11.212
3.8337,59.5603,11.512
3.9337,61.979,11.812
4.034,64.3183,12.112
4.1335,64.8309,12.412
4.2337,68.7808,12.712
4.3338,72.5294,13.012
4.4337,76.2983,13.312
4.5335,79.7735,13.612
4.6338,81.9055,13.912
4.7337,84.4359,14.212
4.8336,85.1474,14.512
4.9334,67.6506,14.812
5.0335,70.3157,15.112
5.1334,69.7296,15.412
5.2334,71.396,15.712
5.3335,72.7388,16.012
5.4333,71.8974,16.312
5.5334,71.6432,16.612
5.6334,73.5373,16.912
5.7334,75.5864,17.212
5.8335,77.0523,17.512
5.9336,79.2736,17.812
6.0335,81.3118,18.112
6.1334,82.8796,18.412
6.2334,71.2251,18.712
6.3337,71.4214,19.012
6.4339,70.6056,19.312
6.5334,70.5665,19.612
6.6336,69.7199,19.912
6.7337,71.1187,20.212
6.8337,70.4528,20.512
6.9335,70.0261,20.812
7.0337,69.1904,21.112
7.1337,64.2359,21.412
7.2336,64.8643,21.712
7.3337,64.8643,22.012
7.4338,62.9162,22.312
7.5337,63.4013,22.612
7.6338,48.5583,22.912
7.734,48.0363,23.212
7.8338,47.8237,23.512
7.9338,47.4204,23.812
8.0337,47.8184,24.112
8.1338,47.6636,24.412
8.2338,45.2665,24.712
8.3338,45.4092,25.012
8.4338,45.3728,25.312
8.5337,43.5177,25.612
8.6336,41.8623,25.912
8.7339,41.8909,26.212
8.834,41.4044,26.512
8.9335,41.3776,26.812
9.0337,41.8241,27.112
9.1338,39.8361,27.412
9.2336,40.0227,27.712
9.3335,40.1375,28.012
9.4335,39.2591,28.312
9.5336,39.1576,28.612
9.6334,38.4871,28.912
9.7334,37.5001,29.212
9.8335,37.0973,29.512
9.9333,36.4244,29.812
10.0335,36.3417,30.112
10.1337,36.3187,30.412
10.2335,36.4018,30.712
10.3336,36.6437,31.012
10.4335,36.4406,31.312
10.5336,36.2832,31.612
10.6337,36.1066,31.912
10.7337,35.9635,32.212
10.8337,34.5635,32.512
10.9336,34.0233,32.812
11.0335,33.1132,33.112
11.1338,32.2887,33.412
11.234,31.8515,33.712
11.3336,31.4558,34.012
11.4338,30.6282,34.312
11.5338,30.0755,34.612
11.6339,29.5913,34.912
11.7338,29.0377,35.212
11.8339,28.7176,35.512
11.9339,28.0173,35.812
12.0338,27.3415,36.112
12.1338,27.0559,36.412
12.2339,26.9027,36.712
12.3336,26.5669,37.012
12.4338,26.2376,37.312
12.534,25.7237,37.612
12.6338,25.5453,37.912
12.7338,25.3816,38.212
12.8338,24.989,38.512
12.9339,23.9395,38.812
13.0339,23.5124,39.112
13.1337,23.1842,39.412
13.2337,23.182,39.712
13.3338,23.3642,40.012
13.4335,23.0343,40.312
13.5337,21.8665,40.612
13.6338,21.8894,40.912
13.7335,21.9175,41.212
13.8336,21.9457,41.512
13.9335,21.9642,41.812
14.0336,21.7751,42.112
14.1336,20.953,42.412
14.2335,20.3751,42.712
14.3336,19.7122,43.012
14.4334,19.3439,43.312
14.5335,19.2198,43.612
14.6336,18.9933,43.912
14.7333,18.2092,44.212
14.8336,17.8803,44.512
14.9337,17.7347,44.812
15.0336,17.8009,45.112
15.1336,17.6357,45.412
15.2336,17.5684,45.712
15.3337,17.3928,46.012
15.4338,16.7897,46.312
15.5336,16.8692,46.612
15.6337,16.0527,46.912
15.7339,15.9429,47.212
15.8336,15.9239,47.512
15.9339,15.9146,47.812
16.0341,16.1077,48.112
16.1337,15.7156,48.412
16.234,15.6897,48.712
16.3338,15.6874,49.012
16.434,15.4457,49.312
16.534,15.5634,49.612
16.6339,15.4725,49.912
16.734,15.365,50.212
16.8338,15.3496,50.512
16.9338,15.3687,50.812
17.0339,14.9165,51.112
17.1335,14.6549,51.412
17.2337,14.5522,51.712
17.3339,14.2631,52.012
17.4336,14.243,52.312
17.5337,14.0505,52.612
17.6336,14.0973,52.912
17.7336,14.2543,53.212
17.8337,14.3808,53.512
17.9334,14.4828,53.812
18.0335,14.4424,54.112
18.1338,14.6488,54.412
18.2334,14.7063,54.712
18.3337,14.6128,55.012
18.4338,14.7241,55.312
18.5334,14.6181,55.612
18.6336,14.3477,55.912
18.7335,14.0051,56.212
18.8336,14.0193,56.512
18.9336,13.8056,56.812
19.0335,13.481,57.112
19.1337,13.4389,57.412
19.2334,13.4216,57.712
19.3335,13.0627,58.012
19.4337,13.1234,58.312
19.5333,12.9256,58.612
19.6337,12.9654,58.912
19.7339,12.573,59.212
19.8337,12.3764,59.512
19.9339,12.2017,59.812
20.0338,12.4356,60.112
20.1337,12.1151,60.412
20.2339,12.0305,60.712
20.3337,11.8293,61.012
20.4338,11.6813,61.312
20.5342,11.7669,61.612
20.6337,11.8657,61.912
20.734,12.0169,62.212
20.8341,11.7362,62.512
20.9338,11.7944,62.812
21.0339,11.6011,63.112
21.1339,11.5842,63.412
21.234,11.5836,63.712
21.3341,11.5198,64.012
21.4337,11.3435,64.312
21.534,11.1115,64.612
21.6337,10.9593,64.912
21.7337,10.9603,65.212
21.8338,10.7512,65.512
21.9333,10.4471,65.812
22.0337,10.3484,66.112
22.1338,10.1254,66.412
22.2335,10.2815,66.712
22.3336,10.1268,67.012
22.4336,10.2513,67.312
22.5336,10.0516,67.612
22.6337,9.94111,67.912
22.7334,9.36149,68.212
22.8335,9.13365,68.512
22.9339,8.81497,68.812
23.0333,8.2939,69.112
23.1337,8.0421,69.412
23.2338,8.14217,69.712
23.3334,7.42294,70.012
23.4336,6.9781,70.312
23.5335,6.97181,70.612
23.6336,6.69761,70.912
23.7338,7.08218,71.212
23.8334,6.57595,71.512
23.9338,6.51156,71.812
24.0335,4.35514,72.112
24.1337,0.02808,72.412
24.167,0.0462592,72.512

File: SSP_2025-03-19_D6_OPER.csv
Crossheadmm,LoadN,Timesec
0.0344,0.0338565,0.114
0.1343,0.496611,0.414
0.2346,0.239137,0.714
0.3342,0.738246,1.014
0.4344,0.663653,1.314
0.5342,0.873144,1.614
0.6343,1.02505,1.914
0.7344,1.13299,2.214
0.8339,1.42949,2.514
0.9343,1.81066,2.814
1.0341,2.13053,3.114
1.1338,2.72364,3.414
1.2345,3.47294,3.714
1.3341,4.06725,4.014
1.4342,5.05644,4.314
1.5343,5.91892,4.614
1.6341,6.9998,4.914
1.7344,7.8934,5.214
1.8343,9.2909,5.514
1.9341,10.2251,5.814
2.0344,11.3773,6.114
2.1341,12.83,6.414
2.2345,14.2149,6.714
2.3348,15.6071,7.014
2.4345,17.0164,7.314
2.5344,18.4365,7.614
2.6347,20.128,7.914
2.7342,21.7213,8.214
2.8346,23.0931,8.514
2.9345,24.3996,8.814
3.0345,25.7011,9.114
3.1347,27.3983,9.414
3.2343,28.453,9.714
3.3346,29.8503,10.014
3.4344,31.1416,10.314
3.5342,32.3717,10.614
3.6348,33.6241,10.914
3.7345,34.5414,11.214
3.8344,35.449,11.514
3.9346,35.3217,11.814
4.0344,33.7974,12.114
4.1346,31.9807,12.414
4.2344,33.5125,12.714
4.3342,25.1315,13.014
4.4345,26.272,13.314
4.5341,25.31,13.614
4.6344,26.3149,13.914
4.7346,26.7147,14.214
4.8343,27.6657,14.514
4.9343,27.0589,14.814
5.0344,18.6373,15.114
5.1341,17.7115,15.414
5.2344,18.338,15.714
5.3342,19.4574,16.014
5.4342,20.3743,16.314
5.5343,21.7315,16.614
5.634,22.2228,16.914
5.7343,22.5842,17.214
5.8341,23.7041,17.514
5.9339,25.2107,17.814
6.0344,26.5559,18.114
6.1342,27.6517,18.414
6.2341,28.2594,18.714
6.3344,29.8256,19.014
6.4342,31.5538,19.314
6.5345,33.1544,19.614
6.6344,35.2088,19.914
6.7342,37.2219,20.214
6.8346,36.9885,20.514
6.9343,39.27,20.814
7.0346,41.7496,21.114
7.1349,44.534,21.414
7.2346,47.341,21.714
7.3345,49.9428,22.014
7.4347,52.7402,22.314
7.5343,55.7414,22.614
7.6347,57.6362,22.914
7.7345,61.7265,23.214
7.8344,66.1461,23.514
7.9347,70.6421,23.814
8.0343,74.1613,24.114
8.1345,78.7533,24.414
8.2343,83.5735,24.714
8.3341,88.1563,25.014
8.4346,93.0925,25.314
8.5343,98.0313,25.614
8.6341,102.824,25.914
8.7345,107.158,26.214
8.8342,110.605,26.514
8.9344,112.385,26.814
9.0343,117.055,27.114
9.134,121.437,27.414
9.2345,125.32,27.714
9.3341,130.656,28.014
9.4342,136.192,28.314
9.5345,139.943,28.614
9.6342,139.547,28.914
9.7343,141.226,29.214
9.8344,145.8,29.514
9.934,151.418,29.814
10.0343,151.839,30.114
10.1341,126.279,30.414
10.234,114.005,30.714
10.3343,117.533,31.014
10.4339,121.919,31.314
10.5342,124.956,31.614
10.6342,111.5,31.914
10.7339,112.493,32.214
10.8344,116.003,32.514
10.9342,120.164,32.814
11.0341,123.815,33.114
11.1344,125.797,33.414
11.2342,128.674,33.714
11.3344,130.899,34.014
11.4344,121.425,34.314
11.5342,119.786,34.614
11.6347,122.833,34.914
11.7344,125.142,35.214
11.8344,128.239,35.514
11.9348,105.614,35.814
12.0344,102.063,36.114
12.1345,86.5771,36.414
12.2347,81.6507,36.714
12.3344,79.0698,37.014
12.4347,74.258,37.314
12.5344,68.6923,37.614
12.6344,48.618,37.914
12.7346,46.4269,38.214
12.8344,38.8604,38.514
12.9345,37.0654,38.814
13.0344,36.598,39.114
13.1342,35.8306,39.414
13.2346,34.5201,39.714
13.3344,30.3686,40.014
13.4342,29.3995,40.314
13.5346,28.1697,40.614
13.6344,27.4083,40.914
13.7345,26.5159,41.214
13.8345,25.047,41.514
13.9342,23.9585,41.814
14.0347,23.2916,42.114
14.1342,22.72,42.414
14.2342,21.9672,42.714
14.3346,21.0845,43.014
14.434,20.2661,43.314
14.5342,19.7437,43.614
14.6343,19.342,43.914
14.734,19.3005,44.214
14.8344,19.0951,44.514
14.934,18.5963,44.814
15.0341,18.2359,45.114
15.1342,17.3704,45.414
15.2341,16.917,45.714
15.3342,14.8899,46.014
15.4343,12.9781,46.314
15.534,12.1041,46.614
15.6345,11.3795,46.914
15.7343,10.6395,47.214
15.8342,9.3729,47.514
15.9345,8.12889,47.814
16.0344,7.47486,48.114
16.1345,7.37505,48.414
16.2346,7.38956,48.714
16.3343,7.37694,49.014
16.4349,6.03427,49.314
16.5345,5.44899,49.614
16.6345,5.24826,49.914
16.7348,4.50409,50.214
16.8343,4.36471,50.514
16.9345,3.9286,50.814
17.0347,3.18521,51.114
17.1345,2.86635,51.414
17.2349,2.85793,51.714
17.3345,2.65174,52.014
17.4346,2.67636,52.314
17.5346,2.41607,52.614
17.6345,2.4504,52.914
17.7344,2.51229,53.214
17.8345,2.6201,53.514
17.9342,2.37512,53.814
18.0346,2.56278,54.114
18.1344,2.52336,54.414
18.2341,2.49013,54.714
18.3345,2.29833,55.014
18.4342,2.40098,55.314
18.5342,2.23686,55.614
18.6344,2.29965,55.914
18.7341,2.13445,56.214
18.8346,2.31621,56.514
18.9342,2.34598,56.814
19.0342,2.13411,57.114
19.1346,1.66813,57.414
19.2339,1.65072,57.714
19.3341,1.61984,58.014
19.4342,1.6679,58.314
19.5341,1.6535,58.614
19.6345,1.24978,58.914
19.7341,1.51065,59.214
19.8342,1.10807,59.514
19.9343,1.07015,59.814
20.0342,0.929707,60.114
20.1342,1.00577,60.414
20.2009,1.0225,60.614