Folder: SSPProjectEK/Data/Selected_data (part 6)

File: SSP_2025-03-20_D12_NO.csv
Crossheadmm,LoadN,Timesec
0.0344,1.57743,0.115
0.101,1.7181,0.315
0.168,2.15127,0.515
0.2347,2.92723,0.715
0.3012,3.17457,0.915
0.3678,3.74786,1.115
0.4345,4.43548,1.315
0.5014,5.34928,1.515
0.5679,6.19537,1.715
0.6345,7.29979,1.915
0.7015,8.24655,2.115
0.7681,9.78347,2.315
0.8345,11.0562,2.515
0.9013,12.8305,2.715
0.9682,14.5117,2.915
1.0348,16.5856,3.115
1.1014,18.4698,3.315
1.1681,20.9411,3.515
1.235,23.333,3.715
1.3017,25.8766,3.915
1.3681,28.6052,4.115
1.4348,31.4922,4.315
1.5014,34.4351,4.515
1.5684,37.6603,4.715
1.6349,41.3036,4.915
1.7015,44.7791,5.115
1.7683,48.3106,5.315
1.8353,52.5533,5.515
1.9014,56.5192,5.715
1.9678,60.8009,5.915
2.0346,65.2921,6.115
2.1018,70.5215,6.315
2.1681,75.3494,6.515
2.2345,80.7608,6.715
2.3014,86.1767,6.915
2.3685,92.0216,7.115
2.4346,98.1619,7.315
2.5012,104.41,7.515
2.568,111.152,7.715
2.6349,118.121,7.915
2.7013,124.399,8.115
2.7679,128.194,8.315
2.8345,134.325,8.515
2.9015,142.476,8.715
2.9679,151.03,8.915
3.0344,159.353,9.115
3.1013,165.85,9.315
3.1679,158.435,9.515
3.2342,166.537,9.715
3.3011,168.297,9.915
3.3677,177.891,10.115
3.4344,187.765,10.315
3.5009,197.917,10.515
3.5675,207.604,10.715
3.6344,215.104,10.915
3.7011,223.187,11.115
3.7675,229.374,11.315
3.8342,238.295,11.515
3.9008,247.496,11.715
3.9677,257.084,11.915
4.0342,266.754,12.115
4.1008,276.974,12.315
4.1675,286.836,12.515
4.2345,296.776,12.715
4.3007,305.486,12.915
4.3672,313.957,13.115
4.434,322.421,13.315
4.501,329.674,13.515
4.5674,334.842,13.715
4.6339,343.037,13.915
4.7007,350.685,14.115
4.7677,357.61,14.315
4.834,365.416,14.515
4.9006,368.213,14.715
4.9674,361.587,14.915
5.0343,367.535,15.115
5.1008,376.17,15.315
5.1675,384.909,15.515
5.2341,393.826,15.715
5.3011,403.094,15.915
5.3677,411.405,16.115
5.4342,405.471,16.315
5.501,403.749,16.515
5.5677,367.486,16.715
5.6343,365.624,16.915
5.7011,350.622,17.115
5.7678,354.419,17.315
5.8344,340.16,17.515
5.9012,259.393,17.715
5.9678,221.12,17.915
6.0347,203.332,18.115
6.1014,204.593,18.315
6.168,194.488,18.515
6.2346,159.6,18.715
6.3011,155.72,18.915
6.3682,152.908,19.115
6.4348,150.447,19.315
6.5014,152.53,19.515
6.5681,130.518,19.715
6.6351,130.199,19.915
6.7013,129.626,20.115
6.7679,74.807,20.315
6.8346,67.0996,20.515
6.9016,61.7778,20.715
6.9681,62.2264,20.915
7.0346,63.2615,21.115
7.1013,64.6067,21.315
7.1683,61.9454,21.515
7.2347,62.6395,21.715
7.3011,63.8511,21.915
7.3679,65.078,22.115
7.4348,65.3308,22.315
7.5013,65.7797,22.515
7.5679,66.8369,22.715
7.6344,67.0959,22.915
7.7014,66.8063,23.115
7.768,61.353,23.315
7.8345,59.4428,23.515
7.9013,33.9628,23.715
7.9679,31.9761,23.915
8.0345,32.4981,24.115
8.1011,32.652,24.315
8.1678,32.9614,24.515
8.2344,33.4341,24.715
8.3013,33.7349,24.915
8.3677,33.8201,25.115
8.4345,34.0403,25.315
8.5012,34.118,25.515
8.5678,33.7379,25.715
8.6343,33.4386,25.915
8.7008,33.1316,26.115
8.7679,32.9783,26.315
8.8345,31.6489,26.515
8.9011,31.7437,26.715
8.9678,29.3849,26.915
9.0348,26.0649,27.115
9.1009,25.7883,27.315
9.1677,25.9419,27.515
9.2345,25.7154,27.715
9.3014,25.2475,27.915
9.3681,25.3266,28.115
9.4347,25.0462,28.315
9.5013,25.2512,28.515
9.5683,25.0442,28.715
9.6349,25.0937,28.915
9.7013,25.1183,29.115
9.7681,25.222,29.315
9.835,25.4158,29.515
9.9015,25.4257,29.715
9.9681,25.1824,29.915
10.0347,25.3157,30.115
10.1017,25.4733,30.315
10.1682,25.6101,30.515
10.2348,25.5751,30.715
10.3015,25.6821,30.915
10.3682,25.6223,31.115
10.4348,25.605,31.315
10.5015,25.6678,31.515
10.5681,25.5595,31.715
10.6348,25.6087,31.915
10.7017,25.6782,32.115
10.7681,25.5229,32.315
10.8349,25.4519,32.515
10.9016,25.4964,32.715
10.9682,25.3673,32.915
11.0348,25.4064,33.115
11.1012,25.433,33.315
11.1683,25.7313,33.515
11.2349,25.6496,33.715
11.3014,25.5849,33.915
11.3681,25.7973,34.115
11.4351,25.7715,34.315
11.5011,25.826,34.515
11.5679,25.8569,34.715
11.6346,26.1081,34.915
11.7015,26.1772,35.115
11.7681,26.1613,35.315
11.8347,26.1842,35.515
11.9012,26.0836,35.715
11.9683,26.0396,35.915
12.0347,26.2504,36.115
12.1012,26.1953,36.315
12.1679,26.4436,36.515
12.2349,26.3957,36.715
12.3014,26.636,36.915
12.3679,26.6108,37.115
12.4345,26.6831,37.315
12.5015,26.7108,37.515
12.5679,27.0876,37.715
12.6345,26.9934,37.915
12.7012,27.2825,38.115
12.7679,27.0454,38.315
12.8345,27.1705,38.515
12.9012,27.1861,38.715
12.9677,27.3917,38.915
13.0343,27.4055,39.115
13.1012,27.364,39.315
13.1678,27.3541,39.515
13.2345,26.8779,39.715
13.3011,26.8216,39.915
13.3678,26.7343,40.115
13.4345,26.6855,40.315
13.5009,26.6632,40.515
13.568,26.618,40.715
13.6346,26.8282,40.915
13.7013,26.7361,41.115
13.768,26.8833,41.315
13.8349,26.7912,41.515
13.9011,26.76,41.715
13.9679,26.8084,41.915
14.0346,26.7101,42.115
14.1014,26.8513,42.315
14.1682,26.7372,42.515
14.2348,26.6887,42.715
14.3014,26.4228,42.915
14.3683,26.4823,43.115
14.4348,26.2106,43.315
14.5013,26.1273,43.515
14.568,26.185,43.715
14.6349,25.9177,43.915
14.7015,25.8604,44.115
14.7681,25.6417,44.315
14.8347,25.5874,44.515
14.9016,25.109,44.715
14.9681,24.9743,44.915
15.0347,24.7071,45.115
15.1014,24.5781,45.315
15.1681,24.5565,45.515
15.2347,24.6326,45.715
15.3015,24.3676,45.915
15.368,24.1987,46.115
15.4347,24.2545,46.315
15.5016,24.1592,46.515
15.5681,24.0571,46.715
15.6348,23.9001,46.915
15.7014,23.7349,47.115
15.7681,23.7266,47.315
15.8347,23.4977,47.515
15.9012,23.3279,47.715
15.9682,22.986,47.915
16.0348,22.9589,48.115
16.1015,22.4387,48.315
16.1682,22.4329,48.515
16.235,22.3563,48.715
16.3012,22.1417,48.915
16.3679,21.9377,49.115
16.4346,21.7107,49.315
16.5014,21.5299,49.515
16.5682,21.5154,49.715

File: SSP_2025-03-20_D14_NO.csv
Crossheadmm,LoadN,Timesec
0.0359,1.98487,0.119
0.1028,2.44395,0.319
0.1697,2.88127,0.519
0.236,3.4113,0.719
0.3028,3.91277,0.919
0.3694,4.42343,1.119
0.4363,4.97494,1.319
0.5026,5.46776,1.519
0.5693,6.03433,1.719
0.636,6.59273,1.919
0.7027,7.16189,2.119
0.7693,8.07076,2.319
0.836,8.79929,2.519
0.9025,9.50938,2.719
0.9692,10.6726,2.919
1.036,11.6288,3.119
1.1024,12.9339,3.319
1.1688,14.1317,3.519
1.2359,15.4412,3.719
1.3025,16.9656,3.919
1.3692,18.3819,4.119
1.4357,20.28,4.319
1.5025,22.0074,4.519
1.5691,24.1637,4.719
1.6357,26.1748,4.919
1.7024,28.39,5.119
1.7692,30.4772,5.319
1.836,33.0693,5.519
1.9026,35.3859,5.719
1.9693,37.9657,5.919
2.0358,40.4428,6.119
2.1026,42.9714,6.319
2.1694,45.7138,6.519
2.2358,48.4901,6.719
2.3028,51.3397,6.919
2.3696,54.3496,7.119
2.436,57.5989,7.319
2.5028,60.7389,7.519
2.5695,63.9798,7.719
2.636,67.3929,7.919
2.7027,70.7682,8.119
2.7694,73.9978,8.319
2.8362,77.5042,8.519
2.9026,80.9785,8.719
2.9694,84.6311,8.919
3.0361,88.2579,9.119
3.1027,91.8787,9.319
3.1694,95.636,9.519
3.2361,99.2696,9.719
3.3026,103.154,9.919
3.3694,106.969,10.119
3.4362,110.636,10.319
3.5027,113.998,10.519
3.569,117.416,10.719
3.6361,119.938,10.919
3.7028,122.791,11.119
3.7695,124.247,11.319
3.8358,125.327,11.519
3.9027,129.42,11.719
3.9693,134.094,11.919
4.0359,139.496,12.119
4.1024,144.32,12.319
4.1692,149.108,12.519
4.2361,153.463,12.719
4.3027,156.353,12.919
4.3692,160.383,13.119
4.4358,164.881,13.319
4.5025,169.422,13.519
4.5694,171.686,13.719
4.6356,175.509,13.919
4.7027,180.186,14.119
4.7693,184.46,14.319
4.8359,185.882,14.519
4.9025,189.737,14.719
4.9693,193.174,14.919
5.0357,196.481,15.119
5.1026,198.684,15.319
5.1692,197.611,15.519
5.236,199.625,15.719
5.3024,200.1,15.919
5.3692,194.108,16.119
5.4358,190.703,16.319
5.5025,193.521,16.519
5.5691,186.554,16.719
5.6357,189.806,16.919
5.7022,192.279,17.119
5.7689,192.395,17.319
5.8356,193.769,17.519
5.9021,196.582,17.719
5.9687,198.499,17.919
6.0358,198.016,18.119
6.1024,200.62,18.319
6.1691,203.446,18.519
6.2355,205.629,18.719
6.3024,207.497,18.919
6.3691,208.243,19.119
6.4358,207.262,19.319
6.5023,198.693,19.519
6.5692,197.38,19.719
6.6359,198.604,19.919
6.7026,199.399,20.119
6.7691,199.15,20.319
6.8358,198.342,20.519
6.9025,196.678,20.719
6.9695,194.459,20.919
7.0357,191.496,21.119
7.1027,188.977,21.319
7.1693,186.872,21.519
7.2361,184.64,21.719
7.3027,183.628,21.919
7.3693,183.286,22.119
7.4359,183.461,22.319
7.5028,183.774,22.519
7.5693,184.447,22.719
7.6362,184.26,22.919
7.7026,184.215,23.119
7.7694,183.525,23.319
7.836,183.151,23.519
7.9027,183.668,23.719
7.9695,184.611,23.919
8.0361,185.567,24.119
8.1026,186.681,24.319
8.1694,188.323,24.519
8.2361,189.676,24.719
8.3026,190.654,24.919
8.3691,191.335,25.119
8.4361,192.232,25.319
8.5028,193.279,25.519
8.5695,194.356,25.719
8.6358,195.467,25.919
8.7027,197.454,26.119
8.7694,199.638,26.319
8.836,202.026,26.519
8.9026,204.134,26.719
8.9693,205.788,26.919
9.0361,207.551,27.119
9.1028,208.339,27.319
9.1693,208.29,27.519
9.2359,208.107,27.719
9.3025,207.982,27.919
9.3695,208.799,28.119
9.4356,209.197,28.319
9.5026,209.217,28.519
9.5693,207.189,28.719
9.636,205.165,28.919
9.7025,202.664,29.119
9.7692,199.36,29.319
9.8357,197.084,29.519
9.9024,196.805,29.719
9.969,196.591,29.919
10.0358,196.991,30.119
10.1023,197.648,30.319
10.1691,198.289,30.519
10.2356,198.958,30.719
10.3023,200.597,30.919
10.3692,202.636,31.119
10.4357,204.418,31.319
10.5022,206.508,31.519
10.569,208.421,31.719
10.6358,210.078,31.919
10.7024,211.398,32.119
10.7688,212.529,32.319
10.8357,213.875,32.519
10.9025,215.36,32.719
10.9692,217.346,32.919
11.0356,219.461,33.119
11.1024,221.652,33.319
11.1691,223.972,33.519
11.2359,225.718,33.719
11.3024,227.175,33.919
11.3692,228.74,34.119
11.436,231.226,34.319
11.5027,233.63,34.519
11.5692,236.262,34.719
11.6358,239.689,34.919
11.7025,242.605,35.119
11.7696,245.062,35.319
11.8358,246.475,35.519
11.9026,247.77,35.719
11.9694,247.967,35.919
12.0362,247.848,36.119
12.1027,248.509,36.319
12.1693,249.427,36.519
12.236,250.236,36.719
12.3028,250.006,36.919
12.3694,250.42,37.119
12.436,251.603,37.319
12.5026,251.101,37.519
12.5695,252.96,37.719
12.636,238.996,37.919
12.7026,238.297,38.119
12.7696,241.824,38.319
12.8361,243.514,38.519
12.9025,246.233,38.719
12.9693,247.523,38.919
13.0362,248.181,39.119
13.1027,244.094,39.319
13.1693,178.039,39.519
13.2361,102.911,39.719
13.303,28.6657,39.919
13.3696,26.8746,40.119
13.436,26.9786,40.319
13.5027,27.5628,40.519
13.5361,27.8407,40.619

File: SSP_2025-03-20_D14_OPER.csv
Crossheadmm,LoadN,Timesec
0.0337,4.62698,0.113
0.1674,4.99351,0.513
0.3008,5.49426,0.913
0.4339,6.08791,1.313
0.5674,6.73103,1.713
0.7008,7.4215,2.113
0.8342,8.10258,2.513
0.9676,8.85256,2.913
1.101,9.88394,3.313
1.2342,10.6832,3.713
1.3675,12.0276,4.113
1.5009,13.2196,4.513
1.6342,14.5986,4.913
1.7673,16.0944,5.313
1.9007,17.8204,5.713
2.034,19.8507,6.113
2.1674,21.763,6.513
2.3005,24.0023,6.913
2.4336,26.4762,7.313
2.5671,29.1208,7.713
2.7006,31.9035,8.113
2.8336,35.2741,8.513
2.9672,39.0265,8.913
3.1006,43.4152,9.313
3.234,47.9829,9.713
3.3674,52.956,10.113
3.5007,57.9307,10.513
3.6339,63.3309,10.913
3.7673,68.1277,11.313
3.9007,73.4601,11.713
4.0341,79.1446,12.113
4.1672,85.0198,12.513
4.3007,85.2965,12.913
4.4341,88.5338,13.313
4.5675,94.445,13.713
4.7007,98.5096,14.113
4.8339,98.7127,14.513
4.9674,97.2208,14.913
5.1009,97.3893,15.313
5.2339,99.1577,15.713
5.3675,100.305,16.113
5.5008,101.361,16.513
5.6342,100.551,16.913
5.7674,100.991,17.313
5.9008,103.789,17.713
6.0339,105.273,18.113
6.1674,108.874,18.513
6.3006,111.856,18.913
6.434,116.409,19.313
6.5671,119.388,19.713
6.7006,123.568,20.113
6.8339,126.647,20.513
6.9672,126.891,20.913
7.1003,128.355,21.313
7.2336,131.449,21.713
7.367,132.959,22.113
7.5004,135.054,22.513
7.6335,138.693,22.913
7.7672,146.305,23.313
7.9005,152.101,23.713
8.0339,157.829,24.113
8.167,159.014,24.513
8.3005,155.598,24.913
8.4337,159.23,25.313
8.5672,157.294,25.713
8.7005,160.209,26.113
8.8338,160.156,26.513
8.9671,154.111,26.913
9.1006,153.501,27.313
9.2341,154.097,27.713
9.3674,156.468,28.113
9.5007,162.409,28.513
9.6339,142.316,28.913
9.7675,104.037,29.313
9.9009,110.334,29.713
10.034,120.019,30.113
10.1676,127.849,30.513
10.3008,136.042,30.913
10.4342,132.765,31.313
10.5673,139.453,31.713
10.7007,144.484,32.113
10.8339,150.714,32.513
10.9672,155.558,32.913
11.1005,156.527,33.313
11.2337,160.916,33.713
11.367,161.238,34.113
11.5003,162.871,34.513
11.6337,161.023,34.913
11.767,166.781,35.313
11.9003,138.324,35.713
12.0335,138.348,36.113
12.167,138.531,36.513
12.3004,142.115,36.913
12.4336,146.45,37.313
12.5672,149.696,37.713
12.7004,151.709,38.113
12.8338,153.445,38.513
12.967,158.291,38.913
13.1005,162.175,39.313
13.2338,164.653,39.713
13.3673,167.062,40.113
13.5007,169.053,40.513
13.6339,171.332,40.913
13.7673,173.702,41.313
13.9006,173.687,41.713
14.0341,168.472,42.113
14.1674,166.288,42.513
14.3007,167.794,42.913
14.4339,168.072,43.313
14.5674,167.677,43.713
14.7007,160.577,44.113
14.8339,158.976,44.513
14.9675,160.282,44.913
15.1007,160.733,45.313
15.234,161.903,45.713
15.3672,162.911,46.113
15.5006,165.253,46.513
15.6339,168.649,46.913
15.7672,171.461,47.313
15.9006,165.343,47.713
16.0337,168.133,48.113
16.1671,136.309,48.513
16.3003,130.841,48.913
16.4338,119.591,49.313
16.5671,117.786,49.713
16.7005,113.617,50.113
16.8337,101.083,50.513
16.9672,99.8201,50.913
17.1005,86.2783,51.313
17.2337,84.8836,51.713
17.3673,85.9965,52.113
17.5007,81.6315,52.513
17.6341,56.2092,52.913
17.7673,51.8965,53.313
17.9008,45.0162,53.713
18.0341,40.9594,54.113
18.1674,33.3602,54.513
18.3009,31.8518,54.913
18.4341,30.8136,55.313
18.5675,29.9794,55.713
18.7007,28.28,56.113
18.8343,27.3368,56.513
18.9675,26.6858,56.913
19.1008,26.2145,57.313
19.234,25.6353,57.713
19.3675,24.344,58.113
19.5008,23.3546,58.513
19.634,22.451,58.913
19.7675,21.1843,59.313
19.9007,19.8171,59.713
20.0341,17.4059,60.113
20.1673,16.5427,60.513
20.3007,15.4838,60.913
20.434,14.6552,61.313
20.5673,14.0252,61.713
20.7007,13.5864,62.113
20.8338,12.6492,62.513
20.9672,11.9997,62.913
21.1003,11.6276,63.313
21.2339,11.4305,63.713
21.3671,11.1974,64.113
21.5006,10.9775,64.513
21.6339,10.6001,64.913
21.7674,9.78387,65.313
21.9007,9.52758,65.713
22.0339,9.36098,66.113
22.1675,8.88904,66.513
22.3007,8.88217,66.913
22.4342,8.3955,67.313
22.5673,8.19204,67.713
22.7008,8.03042,68.113
22.8341,7.7568,68.513
22.9675,7.28928,68.913
23.1009,6.59376,69.313
23.2342,6.61849,69.713
23.3676,6.15854,70.113
23.5006,5.75773,70.513
23.6341,5.69844,70.913
23.7674,5.92847,71.313
23.9008,5.88779,71.713
24.034,5.61155,72.113
24.1675,5.34464,72.513
24.3008,5.08494,72.913
24.4339,5.05719,73.313
24.5675,4.85799,73.713
24.7006,4.94469,74.113
24.8341,4.84992,74.513
24.9672,4.72786,74.913
25.1006,4.54418,75.313
25.2339,4.10457,75.713
25.3672,4.22268,76.113
25.5005,3.87526,76.513
25.6338,3.65014,76.913
25.7672,3.60548,77.313
25.9002,3.75208,77.713
26.0338,3.69394,78.113
26.1672,3.7512,78.513
26.3006,3.78407,78.913
26.4339,3.64423,79.313
26.5674,3.71848,79.713
26.7008,3.61288,80.113
26.8339,3.37721,80.513
26.9675,3.58235,80.913
27.1008,3.29149,81.313
27.2342,3.06784,81.713
27.3674,3.0018,82.113
27.5009,2.76613,82.513
27.6341,2.82164,82.913
27.7675,3.06255,83.313
27.9008,2.81043,83.713
28.0341,2.82548,84.113
28.1676,2.88867,84.513
28.3007,2.84567,84.913
28.4342,3.02215,85.313
28.5675,3.05546,85.713
28.7009,2.97334,86.113
28.8342,3.06489,86.513
28.9675,3.28928,86.913
29.1009,3.21222,87.313
29.2339,2.50934,87.713
29.3673,2.23068,88.113
29.5007,1.90757,88.513
29.634,1.90365,88.913
29.7671,1.73824,89.313
29.9005,1.6205,89.713
30.0339,1.44916,90.113
30.1672,1.49705,90.513
30.3005,1.5409,90.913
30.4338,1.58543,91.313
30.5673,1.33049,91.713
30.7004,0.980787,92.113
30.834,1.07146,92.513
30.9673,1.00263,92.913
31.1007,0.94132,93.313
31.2341,0.94225,93.713
31.3675,0.743657,94.113
31.501,0.746344,94.513
31.6341,0.772162,94.913
31.7675,0.692248,95.313
31.901,0.541894,95.713
32.0343,0.387526,96.113
32.1674,0.253588,96.513
32.301,0.268572,96.913
32.4342,0.184458,97.313
32.5677,0.0280732,97.713
32.7009,0.0702783,98.113
32.8342,0.160009,98.513
32.9675,0.126289,98.913
33.1006,0.123979,99.313
33.2341,0.0700019,99.713
33.3673,0.00866776,100.113
33.5007,0.13105,100.513
33.634,0.0228318,100.913
33.7673,0.454198,101.313
33.9008,0.225238,101.713
34.0338,0.123033,102.113
34.1672,0.0678532,102.513
34.3006,0.134224,102.913
34.4339,0.315449,103.313
34.5671,0.350722,103.713
34.7006,0.325326,104.113
34.8339,0.207647,104.513
34.9673,0.494773,104.913
35.1006,0.33546,105.313
35.2339,0.224353,105.713
35.3673,0.139494,106.113
35.5004,0.261042,106.513
35.6341,0.225978,106.913
35.7674,0.123959,107.313
35.9007,0.42263,107.713
36.0341,0.273677,108.113
36.1676,0.378572,108.513
36.3011,0.221469,108.913
36.4342,0.194483,109.313
36.5675,0.140173,109.713
36.701,0.347733,110.113
36.8344,0.306948,110.513
36.9675,0.238791,110.913
37.1011,0.280787,111.313
37.2343,0.178783,111.713
37.3677,0.276275,112.113
37.5008,0.485901,112.513
37.6342,0.246678,112.913
37.7675,0.0870075,113.313
37.9005,0.245298,113.713
38.034,0.403064,114.113
38.1672,0.270399,114.513
38.3006,0.333548,114.913
38.4339,0.226111,115.313
38.4671,0.272092,115.413

File: SSP_2025-03-20_D15_OPER.csv
Crossheadmm,LoadN,Timesec
0.0341,2.2096,0.112
0.1342,3.03398,0.412
0.2341,3.81108,0.712
0.334,4.29569,1.012
0.4341,5.28286,1.312
0.5341,5.87744,1.612
0.634,6.7136,1.912
0.734,7.53911,2.212
0.8341,8.60024,2.512
0.9341,9.32536,2.812
1.0337,10.3553,3.112
1.1339,11.3966,3.412
1.2338,12.5733,3.712
1.334,13.9491,4.012
1.4339,15.1103,4.312
1.5337,16.5199,4.612
1.6339,17.9569,4.912
1.7337,19.7578,5.212
1.8339,21.4957,5.512
1.9339,23.4478,5.812
2.034,25.3476,6.112
2.1338,27.4204,6.412
2.2338,29.5871,6.712
2.334,31.6905,7.012
2.4339,34.1078,7.312
2.534,36.6462,7.612
2.634,39.1937,7.912
2.734,42.0455,8.212
2.8342,44.9886,8.512
2.9342,47.6953,8.812
3.0341,50.8458,9.112
3.1342,53.8379,9.412
3.2342,57.2625,9.712
3.3342,60.6774,10.012
3.4339,64.234,10.312
3.5342,67.9466,10.612
3.6341,71.5837,10.912
3.7342,75.2785,11.212
3.8343,78.4969,11.512
3.9339,77.4565,11.812
4.0341,80.2657,12.112
4.1339,79.7466,12.412
4.2339,81.444,12.712
4.3341,85.3168,13.012
4.4341,89.0849,13.312
4.5339,92.7123,13.612
4.6338,96.8183,13.912
4.7339,100.6,14.212
4.8338,103.872,14.512
4.9338,107.94,14.812
5.0336,110.318,15.112
5.1337,113.831,15.412
5.2339,117.637,15.712
5.3338,119.93,16.012
5.4338,121.01,16.312
5.5338,121.946,16.612
5.6339,123.551,16.912
5.7338,127.543,17.212
5.8334,131.222,17.512
5.9338,132.26,17.812
6.0336,135.35,18.112
6.1338,138.031,18.412
6.2339,138.698,18.712
6.3336,135.44,19.012
6.4338,137.919,19.312
6.5337,139.819,19.612
6.6337,142.202,19.912
6.7339,143.707,20.212
6.834,141.356,20.512
6.9337,142.31,20.812
7.0339,141.259,21.112
7.134,140.213,21.412
7.2339,137.85,21.712
7.3342,135.728,22.012
7.434,129.783,22.312
7.5341,121.839,22.612
7.6343,120.858,22.912
7.7341,122.77,23.212
7.8341,121.68,23.512
7.9343,124.4375,23.812
8.0342,126.552,24.112
8.1343,127.845,24.412
8.2338,122.039,24.712
8.3342,123.059,25.012
8.4341,125.314,25.312
8.534,127.882,25.612
8.6343,130.251,25.912
8.7339,131.873,26.212
8.834,128.321,26.512
8.9339,125.884,26.812
9.0338,116.199,27.112
9.1341,116.131,27.412
9.234,114.802,27.712
9.3336,111.588,28.012
9.4338,111.004,28.312
9.5338,111.642,28.612
9.6337,103.864,28.912
9.734,94.1225,29.212
9.8337,67.9692,29.512
9.9338,66.6289,29.812
10.034,66.3403,30.112
10.1338,66.1418,30.412
10.2338,58.7537,30.712
10.3338,57.4129,31.012
10.4338,56.959,31.312
10.5338,57.1123,31.612
10.6335,57.3895,31.912
10.7338,56.9885,32.212
10.8337,54.1304,32.512
10.9337,53.6327,32.812
11.034,53.4243,33.112
11.1337,53.2822,33.412
11.2339,52.5293,33.712
11.3339,51.9383,34.012
11.4338,51.5416,34.312
11.5342,50.7877,34.612
11.6343,39.5608,34.912
11.7339,38.2279,35.212
11.8341,37.8509,35.512
11.934,37.4297,35.812
12.0341,36.9749,36.112
12.1343,36.4447,36.412
12.2341,36.0021,36.712
12.3342,36.0086,37.012
12.4343,35.7405,37.312
12.5341,35.1252,37.612
12.6342,33.6182,37.912
12.7342,32.1369,38.212
12.8341,31.9482,38.512
12.9343,31.6471,38.812
13.0338,31.2475,39.112
13.1342,30.7017,39.412
13.234,29.9532,39.712
13.3339,29.2673,40.012
13.4343,28.4113,40.312
13.5339,27.7126,40.612
13.634,27.3638,40.912
13.734,27.1663,41.212
13.8339,26.2689,41.512
13.9341,25.6034,41.812
14.0342,25.5625,42.112
14.1337,25.4012,42.412
14.2339,25.2124,42.712
14.3339,24.8474,43.012
14.4339,24.6013,43.312
14.5341,24.192,43.612
14.6338,23.5464,43.912
14.7339,22.9785,44.212
14.834,22.4175,44.512
14.9337,21.3352,44.812
15.0339,20.5476,45.112
15.1338,20.1736,45.412
15.2338,19.9761,45.712
15.334,19.7074,46.012
15.4337,19.7057,46.312
15.534,19.2489,46.612
15.6339,18.8715,46.912
15.7339,17.8531,47.212
15.8342,17.1074,47.512
15.934,16.3517,47.812
16.034,15.901,48.112
16.1342,15.3177,48.412
16.234,15.421,48.712
16.3342,15.2369,49.012
16.4344,15.0061,49.312
16.5339,14.3572,49.612
16.6342,14.0561,49.912
16.7341,13.5588,50.212
16.8341,12.7535,50.512
16.9344,12.021,50.812
17.0342,11.2301,51.112
17.1342,10.4911,51.412
17.2344,10.2085,51.712
17.334,10.086,52.012
17.4343,9.77816,52.312
17.5343,9.4794,52.612
17.634,8.71427,52.912
17.7343,8.33958,53.212
17.8339,8.03297,53.512
17.9342,7.35397,53.812
18.0339,6.62362,54.112
18.1339,6.50032,54.412
18.2343,6.13078,54.712
18.3339,6.33011,55.012
18.4339,6.00918,55.312
18.5341,5.87047,55.612
18.6339,5.85182,55.912
18.734,5.69427,56.212
18.8341,5.57849,56.512
18.9336,5.52592,56.812
19.034,5.05618,57.112
19.1338,4.92236,57.412
19.2338,4.77792,57.712
19.3341,4.17899,58.012
19.4338,3.0889,58.312
19.5339,3.13115,58.612
19.6339,2.88252,58.912
19.7337,2.83085,59.212
19.8339,2.96699,59.512
19.934,2.83446,59.812
20.0338,2.73393,60.112
20.134,2.72224,60.412
20.2338,2.82637,60.712
20.334,2.81221,61.012
20.4339,2.73996,61.312
20.5339,2.35023,61.612
20.6343,2.48544,61.912
20.734,2.52527,62.212
20.834,2.60189,62.512
20.9342,2.27627,62.812
21.034,1.96917,63.112
21.1343,2.17026,63.412
21.2344,2.05903,63.712
21.3338,2.11293,64.012
21.4344,2.1364,64.312
21.5343,1.69963,64.612
21.6341,1.78752,64.912
21.7345,1.98928,65.212
21.8342,2.00124,65.512
21.9343,2.12725,65.812
22.0345,2.01579,66.112
22.1341,2.12332,66.412
22.2343,2.15625,66.712
22.3343,2.14209,67.012
22.4341,1.94083,67.312
22.5343,1.98677,67.612
22.634,1.93448,67.912
22.7342,2.06113,68.212
22.8339,2.04747,68.512
22.9338,1.97065,68.812
23.0341,2.03246,69.112
23.1338,1.98068,69.412
23.2337,1.96229,69.712
23.3339,1.68692,70.012
23.4337,1.81215,70.312
23.5339,1.65401,70.612
23.6341,1.36732,70.912
23.7334,0.70749,71.212
23.834,0.748777,71.512
23.9339,0.733943,71.812
24.0338,0.564855,72.112
24.1341,0.615193,72.412
24.2338,0.573338,72.712
24.334,0.342884,73.012
24.4341,0.274944,73.312
24.5338,0.288636,73.612
24.634,0.152809,73.912
24.734,0.138242,74.212
24.8338,0.240945,74.512
24.9341,0.0568878,74.812
25.0339,0.0408826,75.112
25.1341,0.046266,75.412
25.234,0.190044,75.712
25.334,0.0120095,76.012
25.4343,0.157141,76.312
25.5342,0.0187544,76.612
25.634,0.000634488,76.912
25.7344,0.0255965,77.212
25.8341,0.0809925,77.512
25.9342,0.0215765,77.812
26.0345,0.02029,78.112
26.134,0.0278406,78.412
26.2345,0.0745114,78.712
26.3343,0.217512,79.012
26.4341,0.0185218,79.312
26.5345,0.042715,79.612
26.6342,0.0677559,79.912
26.7342,0.0483485,80.212
26.8344,0.125121,80.512
26.9341,0.000677306,80.812
27.0343,0.014855,81.112
27.1342,0.16746,81.412
27.2339,0.0971506,81.712
27.3342,0.024309,82.012
27.4339,0.215502,82.312
27.5339,0.00164071,82.612
27.6337,0.25987,82.912
27.7336,0.155028,83.212
27.834,0.173177,83.512
27.9338,0.163828,83.812
28.0337,0.044129,84.112
28.134,0.073984,84.412
28.2338,0.263407,84.712
28.3338,0.144188,85.012
28.4341,0.129818,85.312
28.5336,0.0896661,85.612
28.6342,0.0922128,85.912
28.7339,0.112272,86.212
28.8337,0.0791582,86.512
28.9341,0.0177063,86.812
29.0338,0.0562319,87.112
29.1339,0.114406,87.412
29.2341,0.216756,87.712
29.3338,0.0427189,88.012
29.4341,0.331365,88.312
29.5341,0.240424,88.612
29.6339,0.226806,88.912
29.7342,0.210152,89.212
29.834,0.302028,89.512
29.8674,0.326925,89.612