Folder: SSPProjectEK/Data/Selected_data (part 5)

File: SSP_2025-03-20_D9_NO.csv
Crossheadmm,LoadN,Timesec
0.0337,0.530937,0.112
0.1006,0.572379,0.312
0.1675,0.551688,0.512
0.234,0.781393,0.712
0.3006,1.02603,0.912
0.3672,1.1292,1.112
0.4342,1.38983,1.312
0.5009,1.48906,1.512
0.5675,1.62193,1.712
0.6342,2.06548,1.912
0.701,2.24446,2.112
0.7677,2.64043,2.312
0.8342,3.15754,2.512
0.9006,3.63433,2.712
0.9678,4.05487,2.912
1.0343,4.83756,3.112
1.1009,5.28996,3.312
1.1674,6.10896,3.512
1.2344,7.10603,3.712
1.301,8.15284,3.912
1.3674,8.92974,4.112
1.434,10.0023,4.312
1.501,11.1961,4.512
1.5675,12.4483,4.712
1.6341,13.7304,4.912
1.7006,15.4286,5.112
1.7676,16.7692,5.312
1.8341,18.6031,5.512
1.9006,20.6742,5.712
1.9674,23.3755,5.912
2.0342,26.2026,6.112
2.1004,29.5973,6.312
2.1673,32.9054,6.512
2.2338,36.5279,6.712
2.3006,40.3018,6.912
2.3673,43.7502,7.112
2.4337,48.1263,7.312
2.5004,52.4153,7.512
2.5674,56.6768,7.712
2.6338,60.2742,7.912
2.7004,64.5426,8.112
2.7669,67.4733,8.312
2.834,68.1203,8.512
2.9005,76.3179,8.712
2.9671,84.571,8.912
3.0338,93.1488,9.112
3.1006,102.633,9.312
3.1673,112.641,9.512
3.2337,122.852,9.712
3.3002,134.041,9.912
3.3674,145.335,10.112
3.434,145.925,10.312
3.5002,156.418,10.512
3.567,169.325,10.712
3.634,182.512,10.912
3.7005,195.135,11.112
3.7669,208.588,11.312
3.8336,222.643,11.512
3.9006,236.83,11.712
3.9672,251.399,11.912
4.0338,265.842,12.112
4.1003,280.465,12.312
4.1673,294.135,12.512
4.2339,308.448,12.712
4.3004,323.111,12.912
4.3672,337.294,13.112
4.4339,313.621,13.312
4.5003,319.615,13.512
4.5673,294.392,13.712
4.6339,290.674,13.912
4.7006,297.779,14.112
4.7674,290.212,14.312
4.8338,299.708,14.512
4.9006,303.297,14.712
4.9675,246.321,14.912
5.0341,248.497,15.112
5.1006,256.048,15.312
5.1671,257.314,15.512
5.2341,224.831,15.712
5.3008,191.527,15.912
5.3674,186.597,16.112
5.434,180.401,16.312
5.5009,183.758,16.512
5.5675,185.842,16.712
5.634,189.242,16.912
5.7006,151.85,17.112
5.7677,145.604,17.312
5.8343,131.438,17.512
5.9006,131.369,17.712
5.9673,132.634,17.912
6.0343,135.017,18.112
6.1009,131.169,18.312
6.1673,128.71,18.512
6.234,30.91,18.712
6.301,31.1002,18.912
6.3675,31.4124,19.112
6.434,30.606,19.312
6.5005,18.5373,19.512
6.5675,17.1695,19.712
6.6341,16.4089,19.912
6.7006,15.8405,20.112
6.7673,15.6221,20.312
6.834,14.8269,20.512
6.9003,14.1364,20.712
6.9673,13.5348,20.912
7.0338,12.8055,21.112
7.1005,12.0598,21.312
7.1673,11.6228,21.512
7.2337,11.2781,21.712
7.3005,10.8937,21.912
7.3673,10.7257,22.112
7.4339,9.66257,22.312
7.5005,9.15865,22.512
7.5669,8.67361,22.712
7.634,8.20315,22.912
7.7006,8.06889,23.112
7.7672,7.70541,23.312
7.8337,7.2892,23.512
7.9007,7.10527,23.712
7.9673,6.89861,23.912
8.0338,6.72711,24.112
8.1003,6.74328,24.312
8.1674,6.40433,24.512
8.2342,5.4169,24.712
8.3005,5.30573,24.912
8.3672,5.22606,25.112
8.4342,5.17491,25.312
8.5008,5.24555,25.512
8.5672,5.07294,25.712
8.634,4.92968,25.912
8.7009,4.90538,26.112
8.7675,4.90026,26.312
8.8341,4.83049,26.512
8.9006,4.86905,26.712
8.9677,4.92623,26.912
9.0343,4.73675,27.112
9.1009,4.68524,27.312
9.1676,4.64627,27.512
9.2342,4.43307,27.712
9.3007,4.17233,27.912
9.3675,4.20793,28.112
9.4342,3.99112,28.312
9.5008,3.77479,28.512
9.5677,3.83401,28.712
9.634,3.89446,28.912
9.7009,3.52159,29.112
9.7676,3.21975,29.312
9.8343,3.48416,29.512
9.9008,3.49629,29.712
9.9672,3.41381,29.912
10.0343,3.3229,30.112
10.1009,3.21354,30.312
10.1675,3.35862,30.512
10.2341,3.38562,30.712
10.3009,3.28541,30.912
10.3675,3.23473,31.112
10.434,3.29001,31.312
10.5006,3.36738,31.512
10.5676,3.48588,31.712
10.6343,3.51571,31.912
10.7006,3.69784,32.112
10.7672,3.60979,32.312
10.8343,3.57964,32.512
10.9008,3.60438,32.712
10.9672,3.70937,32.912
11.034,3.78746,33.112
11.1009,3.63759,33.312
11.1674,3.3147,33.512
11.234,3.27261,33.712

File: SSP_2025-03-20_D9_OPER.csv
Crossheadmm,LoadN,Timesec
0.0368,0.814219,0.122
0.2036,1.31021,0.622
0.3703,1.80856,1.122
0.5372,1.96382,1.622
0.7035,2.59494,2.122
0.8704,3.29659,2.622
1.0369,3.99809,3.122
1.2032,5.00314,3.622
1.3703,6.12811,4.122
1.5369,7.6017,4.622
1.7035,9.5061,5.122
1.8703,11.4217,5.622
2.0368,14.1178,6.122
2.2036,17.0184,6.622
2.3706,20.3194,7.122
2.5368,24.0516,7.622
2.7037,28.7219,8.122
2.8703,33.1627,8.622
3.0371,38.1612,9.122
3.2041,43.4546,9.622
3.3701,48.7621,10.122
3.5372,54.3803,10.622
3.704,60.1576,11.122
3.8705,62.9615,11.622
4.0374,68.7228,12.122
4.204,73.4833,12.622
4.3704,69.4145,13.122
4.5371,75.9095,13.622
4.7035,79.5667,14.122
4.8704,84.0309,14.622
5.0369,82.7605,15.122
5.2035,84.7713,15.622
5.3702,87.772,16.122
5.5367,80.2662,16.622
5.7038,81.7742,17.122
5.8704,60.0766,17.622
6.0367,65.6538,18.122
6.2036,70.2882,18.622
6.3703,72.669,19.122
6.5367,74.984,19.622
6.7035,75.6007,20.122
6.8702,73.4548,20.622
7.037,81.4362,21.122
7.2037,90.7286,21.622
7.3701,100.589,22.122
7.5371,110.772,22.622
7.7039,118.102,23.122
7.8703,128.021,23.622
8.0372,137.066,24.122
8.2036,136.521,24.622
8.3703,142.98,25.122
8.5373,142.006,25.622
8.7036,136.513,26.122
8.8704,144.082,26.622
9.0371,146.684,27.122
9.2036,156.549,27.622
9.3702,156.535,28.122
9.5369,162.835,28.622
9.7036,167.06,29.122
9.8703,171.66,29.622
10.0367,165.716,30.122
10.2036,168.451,30.622
10.3705,174.861,31.122
10.5366,176.656,31.622
10.7036,181.892,32.122
10.8701,168.732,32.622
11.0367,169.522,33.122
11.2036,166.549,33.622
11.3702,163.074,34.122
11.5367,162.523,34.622
11.7036,162.728,35.122
11.8701,153.517,35.622
12.0371,152.171,36.122
12.2035,149.712,36.622
12.3704,147.654,37.122
12.5372,146.061,37.622
12.7035,143.621,38.122
12.8708,142.36,38.622
13.0373,119.719,39.122
13.2036,116.246,39.622
13.3705,116.717,40.122
13.537,115.026,40.622
13.7037,114.699,41.122
13.8704,103.087,41.622
14.0369,95.9576,42.122
14.2038,93.0362,42.622
14.3703,89.6134,43.122
14.5368,88.0063,43.622
14.7036,87.2238,44.122
14.8701,86.3419,44.622
15.0369,85.4387,45.122
15.2036,84.0473,45.622
15.3699,82.7413,46.122
15.537,80.5034,46.622
15.7036,72.8641,47.122
15.8702,72.3042,47.622
16.037,73.393,48.122
16.2035,73.0754,48.622
16.3704,72.4013,49.122
16.5369,72.2418,49.622
16.7038,72.1746,50.122
16.8706,71.9689,50.622
17.0371,72.3181,51.122
17.2038,72.2989,51.622
17.3705,72.7143,52.122
17.5371,73.3062,52.622
17.7036,73.8258,53.122
17.8707,73.8376,53.622
18.0372,74.213,54.122
18.2039,74.4127,54.622
18.3705,74.811,55.122
18.5371,74.7885,55.622
18.7036,74.7603,56.122
18.8701,74.5349,56.622
19.0368,74.2635,57.122
19.2035,73.48,57.622
19.3699,71.4282,58.122
19.5368,68.439,58.622
19.7034,66.5215,59.122
19.8701,65.0438,59.622
20.0371,64.4042,60.122
20.2036,63.1118,60.622
20.3702,60.9792,61.122
20.5371,59.1033,61.622
20.7035,57.6818,62.122
20.8703,56.5928,62.622
21.0369,55.9032,63.122
21.2037,55.0514,63.622
21.3705,53.8731,64.122
21.5372,53.4989,64.622
21.7037,52.8782,65.122
21.8704,51.6074,65.622
22.0372,49.9447,66.122
22.204,48.1608,66.622
22.3706,46.3759,67.122
22.5369,45.5588,67.622
22.7039,44.4768,68.122
22.8705,44.1603,68.622
23.0372,43.5952,69.122
23.2038,42.0652,69.622
23.3705,40.05,70.122
23.5369,37.5767,70.622
23.7033,36.0918,71.122
23.8701,35.291,71.622
24.0369,34.764,72.122
24.2034,34.3575,72.622
24.3703,33.8329,73.122
24.5368,33.0841,73.622
24.7035,32.4423,74.122
24.8705,31.971,74.622
25.037,30.6648,75.122
25.2036,30.1141,75.622
25.3704,29.5766,76.122
25.5371,28.4327,76.622
25.7038,27.3039,77.122
25.8702,25.7571,77.622
26.0372,24.7433,78.122
26.2039,24.6324,78.622
26.3704,24.2339,79.122
26.5371,23.8396,79.622
26.7039,23.8045,80.122
26.8707,23.2831,80.622
27.0372,22.8754,81.122
27.2038,22.8253,81.622
27.3705,22.7272,82.122
27.537,22.0455,82.622
27.7037,20.2849,83.122
27.8704,16.367,83.622
28.037,15.1852,84.122
28.2036,13.3802,84.622
28.3703,13.2538,85.122
28.5367,12.8883,85.622
28.7037,12.8007,86.122
28.8703,12.521,86.622
29.0368,12.1461,87.122
29.2037,11.7957,87.622
29.3703,11.7583,88.122
29.5371,11.3947,88.622
29.7036,10.8928,89.122
29.8703,10.9718,89.622
30.0371,10.7618,90.122
30.2038,10.2044,90.622
30.3705,9.87341,91.122
30.5374,9.57466,91.622
30.7037,9.42265,92.122
30.8705,9.48583,92.622
31.0372,9.34808,93.122
31.2037,9.09492,93.622
31.3704,8.97097,94.122
31.5372,8.94046,94.622
31.7038,8.8068,95.122
31.8704,8.72494,95.622
32.0374,8.39247,96.122
32.2039,8.32633,96.622
32.3703,8.51594,97.122
32.5369,8.50412,97.622
32.7037,8.4208,98.122
32.8703,8.74437,98.622
33.0368,8.91776,99.122
33.2036,8.80584,99.622
33.3703,8.78316,100.122
33.537,8.92778,100.622
33.7035,8.64795,101.122
33.8701,8.47484,101.622
34.037,8.60155,102.122
34.2036,8.70105,102.622
34.3703,8.6268,103.122
34.5371,8.63362,103.622
34.7037,8.54552,104.122
34.8706,8.41553,104.622
35.0372,8.51012,105.122
35.2038,8.19312,105.622
35.3706,7.98402,106.122
35.5373,7.97569,106.622
35.7036,7.7451,107.122
35.8707,7.84993,107.622
36.0371,7.86694,108.122
36.2039,7.75331,108.622
36.3705,7.70096,109.122
36.5369,7.64962,109.622
36.7039,7.81086,110.122
36.8702,7.66326,110.622
37.0371,7.74106,111.122
37.2038,7.99745,111.622
37.3702,8.02865,112.122
37.537,8.04288,112.622
37.7037,8.24954,113.122
37.8698,8.2459,113.622
38.0368,8.24868,114.122
38.2033,8.33463,114.622
38.3701,8.27973,115.122
38.5368,8.33018,115.622
38.7035,7.80789,116.122
38.8704,7.9144,116.622
39.0371,7.96614,117.122
39.204,7.90382,117.622
39.3707,7.76689,118.122
39.537,7.62,118.622
39.704,7.12584,119.122
39.8706,6.50025,119.622
40.0371,5.01682,120.122
40.2039,4.18997,120.622
40.3705,3.72927,121.122
40.5372,3.48546,121.622
40.704,3.40498,122.122
40.8702,3.38685,122.622
41.0371,3.42069,123.122
41.2038,3.56817,123.622
41.3703,3.59963,124.122
41.5371,3.32249,124.622
41.7034,3.4699,125.122
41.8702,3.5212,125.622
42.0371,3.45611,126.122
42.2035,3.52756,126.622
42.3702,3.4467,127.122
42.537,3.19007,127.622
42.7033,3.31063,128.122
42.87,3.3795,128.622
43.0369,3.24009,129.122
43.2037,3.36997,129.622
43.3705,2.88795,130.122
43.537,2.58354,130.622
43.7038,2.57378,131.122

File: SSP_2025-03-20_D10_NO.csv
Crossheadmm,LoadN,Timesec
0.0338,3.94944,0.113
0.1006,4.65288,0.313
0.1675,5.37697,0.513
0.2342,6.19665,0.713
0.3007,7.07407,0.913
0.3671,7.98465,1.113
0.4344,8.97773,1.313
0.5009,9.95355,1.513
0.5675,11.3987,1.713
0.6339,12.792,1.913
0.701,14.5249,2.113
0.7676,16.3438,2.313
0.834,18.0614,2.513
0.9007,20.0319,2.713
0.9677,22.8397,2.913
1.0343,25.1011,3.113
1.1008,27.8736,3.313
1.1673,30.8803,3.513
1.2344,34.0532,3.713
1.3009,37.6205,3.913
1.3674,40.8722,4.113
1.4341,44.6636,4.313
1.5009,49.0854,4.513
1.5674,53.0622,4.713
1.634,57.3183,4.913
1.7006,61.9956,5.113
1.7673,66.5386,5.313
1.8339,71.2144,5.513
1.9006,75.0272,5.713
1.9672,76.5706,5.913
2.0339,79.3077,6.113
2.1005,86.6115,6.313
2.1671,94.2779,6.513
2.2336,101.887,6.713
2.3006,109.382,6.913
2.3674,117.754,7.113
2.4337,126.026,7.313
2.5004,134.929,7.513
2.5672,144.236,7.713
2.6339,153.18,7.913
2.7004,162.324,8.113
2.7668,169.496,8.313
2.8341,171.17,8.513
2.9005,174.603,8.713
2.967,182.797,8.913
3.0335,188.887,9.113
3.1007,198.063,9.313
3.1672,205.806,9.513
3.2336,214.186,9.713
3.3003,217.385,9.913
3.3673,228.345,10.113
3.4339,239.939,10.313
3.5005,251.123,10.513
3.5669,262.597,10.713
3.634,275.214,10.913
3.7006,278.432,11.113
3.7672,275.22,11.313
3.8339,215.422,11.513
3.9007,219.34,11.713
3.9671,228.163,11.913
4.0339,239.871,12.113
4.1005,252.266,12.313
4.1673,260.467,12.513
4.2339,272.194,12.713
4.3006,280.764,12.913
4.3673,287.611,13.113
4.4339,298.684,13.313
4.5006,292.967,13.513
4.5672,274.042,13.713
4.6338,279.525,13.913
4.7008,278.331,14.113
4.7675,251.404,14.313
4.8339,257.887,14.513
4.9005,247.645,14.713
4.9674,248.826,14.913
5.0341,234.496,15.113
5.1006,227.914,15.313
5.1671,212.237,15.513
5.2343,214.27,15.713
5.3008,198.135,15.913
5.3673,199.786,16.113
5.4339,196.744,16.313
5.501,199.347,16.513
5.5674,188.687,16.713
5.6339,172.288,16.913
5.7006,131.081,17.113
5.7676,117.641,17.313
5.8342,121.595,17.513
5.9007,125.96,17.713
5.9672,125.27,17.913
6.0342,121.17,18.113
6.1007,124.357,18.313
6.1673,121.539,18.513
6.234,114.765,18.713
6.3008,112.091,18.913
6.3672,112.617,19.113
6.4339,104.287,19.313
6.5005,106.598,19.513
6.5672,96.1364,19.713
6.6339,95.4645,19.913
6.7005,77.2926,20.113
6.7672,74.6922,20.313
6.8339,67.6041,20.513
6.9005,68.0663,20.713
6.9671,66.7287,20.913
7.0336,62.3485,21.113
7.1006,64.132,21.313
7.1673,65.5819,21.513
7.2337,66.3165,21.713
7.3004,67.7,21.913
7.3672,67.5533,22.113
7.4339,67.5043,22.313
7.5004,67.021,22.513
7.5669,65.7985,22.713
7.6341,63.9582,22.913
7.7007,65.464,23.113
7.767,62.5586,23.313
7.8338,55.0988,23.513
7.9007,52.461,23.713
7.9673,45.0879,23.913
8.0338,43.1901,24.113
8.1006,43.3904,24.313
8.1674,41.1796,24.513
8.2341,41.8805,24.713
8.3006,43.0191,24.913
8.3671,44.2927,25.113
8.4341,46.0439,25.313
8.5007,46.9862,25.513
8.5672,48.4833,25.713
8.634,48.0876,25.913
8.7007,45.8759,26.113
8.7672,47.1153,26.313
8.8341,48.4549,26.513
8.9007,48.4038,26.713
8.9672,48.5826,26.913
9.034,47.2546,27.113
9.1007,47.2774,27.313
9.1675,48.061,27.513
9.2341,38.398,27.713
9.3008,36.6185,27.913
9.3674,35.0088,28.113
9.4339,35.1528,28.313
9.5009,35.9327,28.513
9.5676,36.2193,28.713
9.6342,36.0616,28.913
9.7008,36.2914,29.113
9.7675,35.6014,29.313
9.8343,35.3139,29.513
9.9008,34.7241,29.713
9.9674,35.6294,29.913
10.0344,36.3502,30.113
10.1011,36.7487,30.313
10.1673,37.1987,30.513
10.2342,37.9202,30.713
10.3009,38.4077,30.913
10.3676,39.4683,31.113
10.434,40.0524,31.313
10.5008,40.6274,31.513
10.5675,40.0913,31.713
10.6343,40.933,31.913
10.7008,41.8252,32.113
10.7673,42.5898,32.313
10.8342,43.2763,32.513
10.9009,43.5897,32.713
10.9673,44.3653,32.913
11.0341,44.9353,33.113
11.1006,45.6553,33.313
11.1671,46.1977,33.513
11.2339,47.0283,33.713
11.3005,47.0171,33.913
11.367,46.1704,34.113
11.4339,46.6728,34.313
11.5005,47.0908,34.513
11.5672,45.7556,34.713
11.6338,46.0077,34.913
11.7006,44.6918,35.113
11.7671,42.8746,35.313
11.8337,42.4398,35.513
11.9006,42.9504,35.713
11.9673,43.664,35.913
12.0339,44.2649,36.113
12.1005,44.3789,36.313
12.1672,44.3506,36.513
12.2339,37.0034,36.713
12.3004,34.299,36.913
12.3671,34.105,37.113
12.434,34.0221,37.313
12.5008,33.6154,37.513
12.5671,33.7421,37.713
12.6339,34.2137,37.913
12.7007,34.457,38.113
12.7674,34.5525,38.313
12.8338,34.5976,38.513
12.9006,34.9606,38.713
12.9674,34.9613,38.913
13.0341,35.3731,39.113
13.1007,35.5961,39.313
13.1672,35.701,39.513
13.2006,35.5807,39.613

File: SSP_2025-03-20_D10_OPER.csv
Crossheadmm,LoadN,Timesec
0.0339,0.484772,0.113
0.1343,0.571745,0.413
0.2344,0.796133,0.713
0.3343,0.891903,1.013
0.434,1.02946,1.313
0.5343,1.14099,1.613
0.6342,1.07249,1.913
0.734,1.36689,2.213
0.8342,1.39579,2.513
0.934,1.60478,2.813
1.0342,1.84481,3.113
1.1339,2.1557,3.413
1.2339,2.39404,3.713
1.3337,2.74368,4.013
1.4339,3.05303,4.313
1.5339,3.22396,4.613
1.6339,3.38915,4.913
1.7338,3.79749,5.213
1.834,4.1726,5.513
1.934,4.25849,5.813
2.0338,4.98123,6.113
2.1339,5.27436,6.413
2.2339,6.16495,6.713
2.3339,6.51525,7.013
2.4338,7.23745,7.313
2.534,8.11139,7.613
2.6342,8.6152,7.913
2.7341,9.63038,8.213
2.8339,10.8109,8.513
2.9341,12.0068,8.813
3.034,13.2592,9.113
3.1339,14.4163,9.413
3.2342,16.0449,9.713
3.334,17.6566,10.013
3.4342,19.2755,10.313
3.5341,20.9864,10.613
3.6342,22.8835,10.913
3.734,24.576,11.213
3.8342,26.9408,11.513
3.9342,28.9437,11.813
4.0342,31.1936,12.113
4.1341,33.4989,12.413
4.2342,35.854,12.713
4.3343,38.7103,13.013
4.4341,41.5012,13.313
4.5342,44.1394,13.613
4.6341,41.5509,13.913
4.7341,44.5497,14.213
4.8341,48.0653,14.513
4.9342,51.461,14.813
5.0342,54.8999,15.113
5.1341,58.7734,15.413
5.234,62.397,15.713
5.3342,65.3877,16.013
5.434,66.248,16.313
5.5339,69.2678,16.613
5.6341,75.0673,16.913
5.7339,80.0238,17.213
5.8339,85.0188,17.513
5.9339,89.3477,17.813
6.0338,94.731,18.113
6.1336,100.105,18.413
6.2337,105.98,18.713
6.3337,112.066,19.013
6.4338,117.937,19.313
6.5337,123.937,19.613
6.6337,130.071,19.913
6.7339,134.91,20.213
6.8336,140.843,20.513
6.9339,145.697,20.813
7.0337,151.714,21.113
7.1339,151.733,21.413
7.2338,139.388,21.713
7.334,144.084,22.013
7.434,148.159,22.313
7.5341,113.566,22.613
7.634,115.41,22.913
7.7341,113.85,23.213
7.8341,114.659,23.513
7.9339,117.163,23.813
8.0342,100.978,24.113
8.1341,103.175,24.413
8.2341,106.467,24.713
8.3341,105.31,25.013
8.4342,107.2,25.313
8.5339,110.519,25.613
8.6341,113.926,25.913
8.7341,117.159,26.213
8.834,119.098,26.513
8.934,116.852,26.813
9.034,115.813,27.113
9.1341,116.696,27.413
9.2339,116.328,27.713
9.334,113.637,28.013
9.434,115.039,28.313
9.5341,116,28.613
9.6341,92.5598,28.913
9.734,88.9736,29.213
9.8341,82.0531,29.513
9.934,81.931,29.813
10.0341,81.5592,30.113
10.1342,79.3732,30.413
10.2341,75.9495,30.713
10.3339,69.1662,31.013
10.434,63.874,31.313
10.5339,60.5419,31.613
10.6337,59.5627,31.913
10.7338,57.4794,32.213
10.8338,57.1683,32.513
10.9336,56.9888,32.813
11.0337,56.4275,33.113
11.1338,55.412,33.413
11.2339,54.1501,33.713
11.3339,52.7098,34.013
11.4339,51.845,34.313
11.534,50.9289,34.613
11.6338,50.2204,34.913
11.734,50.4625,35.213
11.834,50.1498,35.513
11.9342,49.6124,35.813
12.0341,48.3359,36.113
12.1341,47.7899,36.413
12.2341,46.691,36.713
12.3341,46.2032,37.013
12.4341,46.082,37.313
12.5342,46.0872,37.613
12.6342,46.3505,37.913
12.7342,45.6326,38.213
12.8342,45.0929,38.513
12.9342,44.8003,38.813
13.034,44.5716,39.113
13.1342,44.4261,39.413
13.2343,44.1978,39.713
13.3339,43.4126,40.013
13.434,43.1048,40.313
13.5343,42.938,40.613
13.6342,43.73,40.913
13.7341,43.964,41.213
13.8341,44.4173,41.513
13.9344,44.7612,41.813
14.0341,44.265,42.113
14.1341,44.306,42.413
14.2341,43.8022,42.713
14.3344,43.4369,43.013
14.4341,43.0572,43.313
14.534,42.5393,43.613
14.634,41.9207,43.913
14.7339,41.4131,44.213
14.834,41.1115,44.513
14.9339,40.8777,44.813
15.0339,40.5636,45.113
15.1339,40.8813,45.413
15.2339,39.4822,45.713
15.3339,38.4235,46.013
15.4336,37.3348,46.313
15.5339,36.1374,46.613
15.6339,34.133,46.913
15.7336,32.8287,47.213
15.8337,31.7998,47.513
15.9339,31.3317,47.813
16.034,31.0002,48.113
16.1339,30.5396,48.413
16.2339,30.3298,48.713
16.3341,29.9286,49.013
16.4339,29.5518,49.313
16.534,28.5725,49.613
16.6341,28.1076,49.913
16.7343,28.0268,50.213
16.8342,27.9932,50.513
16.9341,27.8758,50.813
17.0341,26.8664,51.113
17.134,26.925,51.413
17.2342,26.8048,51.713
17.3341,26.7562,52.013
17.4343,26.011,52.313
17.5343,25.8018,52.613
17.6342,24.7472,52.913
17.7344,24.1967,53.213
17.8341,22.9322,53.513
17.9343,22.7798,53.813
18.0343,22.6455,54.113
18.1339,22.211,54.413
18.2341,22.254,54.713
18.3343,22.1352,55.013
18.4342,21.5941,55.313
18.5341,21.5786,55.613
18.634,21.4451,55.913
18.7342,21.3503,56.213
18.8339,21.2751,56.513
18.9339,21.9564,56.813
19.034,21.4834,57.113
19.1342,21.5908,57.413
19.2341,21.6549,57.713
19.334,21.622,58.013
19.4339,21.7254,58.313
19.5338,21.1338,58.613
19.634,21.2297,58.913
19.7337,21.2703,59.213
19.8339,21.5178,59.513
19.934,21.7663,59.813
20.0338,21.8906,60.113
20.134,22.1478,60.413
20.2337,22.215,60.713
20.334,22.5333,61.013
20.4339,22.7478,61.313
20.5337,22.8883,61.613
20.6339,23.0658,61.913
20.7341,23.4659,62.213
20.834,23.8792,62.513
20.934,24.1656,62.813
21.034,24.0755,63.113
21.1342,23.6826,63.413
21.234,23.4382,63.713
21.334,23.6645,64.013
21.4341,23.3151,64.313
21.5344,23.2001,64.613
21.6343,22.892,64.913
21.7343,22.2454,65.213
21.8343,22.349,65.513
21.9341,22.24,65.813
22.0343,22.1076,66.113
22.1341,22.6154,66.413
22.2343,22.4639,66.713
22.3344,22.8516,67.013
22.4341,22.9015,67.313
22.5345,23.4014,67.613
22.6341,23.2469,67.913
22.7343,23.2241,68.213
22.8342,23.2722,68.513
22.9339,23.379,68.813
23.0341,23.3738,69.113
23.1341,23.3689,69.413
23.2339,23.4103,69.713
23.3339,22.8804,70.013
23.434,22.6362,70.313
23.5342,21.905,70.613
23.6339,21.4592,70.913
23.7338,21.1131,71.213
23.8339,21.078,71.513
23.9342,20.8629,71.813
24.034,20.4808,72.113
24.134,20.2258,72.413
24.2339,19.8885,72.713
24.3338,19.2944,73.013
24.434,18.9998,73.313
24.5337,18.4427,73.613
24.6339,18.1825,73.913
24.734,17.8267,74.213
24.8337,17.3235,74.513
24.934,16.6619,74.813
25.0337,16.215,75.113
25.134,15.5255,75.413
25.2339,15.3111,75.713
25.3337,15.07,76.013
25.4339,14.8332,76.313
25.5341,14.7034,76.613
25.6339,14.3829,76.913
25.734,14.1661,77.213
25.834,13.3405,77.513
25.9344,12.0077,77.813
26.0341,11.3988,78.113
26.1341,9.06029,78.413
26.2342,8.77412,78.713
26.3345,7.98575,79.013
26.4343,8.15937,79.313
26.5344,7.88975,79.613
26.6343,7.77381,79.913
26.7341,7.51635,80.213
26.8344,7.04378,80.513
26.9341,6.82944,80.813
27.0342,6.67787,81.113
27.1343,6.19402,81.413
27.2339,6.19904,81.713
27.3344,6.10371,82.013
27.434,5.99731,82.313
27.5342,5.62079,82.613
27.6341,5.41637,82.913
27.7339,5.10447,83.213
27.834,4.92205,83.513
27.934,4.90332,83.813
28.0337,4.33723,84.113
28.1338,4.54714,84.413
28.2339,4.14263,84.713
28.3341,4.02507,85.013
28.4339,3.70832,85.313
28.5338,3.45638,85.613