Folder: SSPProjectEK/Data/Selected_data (part 2)

File: SSP_2022-12-17_B9_OPER.csv
Crossheadmm,LoadN,Timesec
0.0,2.0,0.000
0.02,2.0,0.200
0.04,2.0,0.400
0.07,2.0,0.600
0.1,2.0,0.800
0.14,2.0,1.000
0.19,2.0,1.200
0.25,2.0,1.400
0.31,2.0,1.600
0.37,2.0,1.800
0.44,2.0,2.000
0.5,2.0,2.200
0.57,2.0,2.400
0.64,2.0,2.600
0.7,2.0,2.800
0.77,2.0,3.000
0.84,2.0,3.200
0.9,2.0,3.400
0.97,2.0,3.600
1.04,2.0,3.800
1.1,2.0,4.000
1.17,2.0,4.200
1.24,2.0,4.400
1.3,2.0,4.600
1.37,3.0,4.800
1.44,3.0,5.000
1.5,3.0,5.200
1.57,3.0,5.400
1.64,4.0,5.600
1.7,4.0,5.800
1.77,4.0,6.000
1.84,4.0,6.200
1.9,4.0,6.400
1.97,4.0,6.600
2.04,4.0,6.800
2.1,4.0,7.000
2.17,4.0,7.200
2.24,5.0,7.400
2.3,5.0,7.600
2.37,5.0,7.800
2.44,5.0,8.000
2.5,6.0,8.200
2.57,6.0,8.400
2.64,7.0,8.600
2.7,7.0,8.800
2.77,7.0,9.000
2.84,7.0,9.200
2.9,7.0,9.400
2.97,8.0,9.600
3.04,8.0,9.800
3.1,9.0,10.000
3.17,9.0,10.200
3.24,9.0,10.400
3.3,9.0,10.600
3.37,9.0,10.800
3.44,10.0,11.000
3.5,10.0,11.200
3.57,10.0,11.400
3.64,10.0,11.600
3.7,11.0,11.800
3.77,11.0,12.000
3.84,12.0,12.200
3.9,12.0,12.400
3.97,12.0,12.600
4.04,13.0,12.800
4.1,13.0,13.000
4.17,14.0,13.200
4.23,14.0,13.400
4.3,14.0,13.600
4.37,14.0,13.800
4.44,15.0,14.000
4.5,15.0,14.200
4.57,15.0,14.400
4.63,16.0,14.600
4.7,16.0,14.800
4.77,17.0,15.000
4.83,18.0,15.200
4.9,18.0,15.400
4.97,18.0,15.600
5.04,19.0,15.800
5.1,19.0,16.000
5.17,20.0,16.200
5.24,20.0,16.400
5.3,20.0,16.600
5.37,21.0,16.800
5.44,21.0,17.000
5.5,21.0,17.200
5.57,22.0,17.400
5.64,22.0,17.600
5.7,23.0,17.800
5.77,23.0,18.000
5.83,23.0,18.200
5.9,23.0,18.400
5.97,23.0,18.600
6.03,24.0,18.800
6.1,24.0,19.000
6.17,24.0,19.200
6.23,25.0,19.400
6.3,25.0,19.600
6.37,26.0,19.800
6.44,26.0,20.000
6.5,27.0,20.200
6.57,27.0,20.400
6.63,28.0,20.600
6.7,29.0,20.800
6.77,29.0,21.000
6.83,30.0,21.200
6.9,31.0,21.400
6.97,31.0,21.600
7.04,32.0,21.800
7.1,32.0,22.000
7.17,32.0,22.200
7.23,33.0,22.400
7.3,34.0,22.600
7.37,34.0,22.800
7.43,35.0,23.000
7.5,36.0,23.200
7.57,36.0,23.400
7.63,37.0,23.600
7.7,38.0,23.800
7.77,38.0,24.000
7.83,39.0,24.200
7.9,40.0,24.400
7.97,40.0,24.600
8.03,41.0,24.800
8.1,41.0,25.000
8.17,42.0,25.200
8.23,43.0,25.400
8.3,43.0,25.600
8.37,45.0,25.800
8.43,45.0,26.000
8.5,46.0,26.200
8.56,47.0,26.400
8.63,47.0,26.600
8.7,49.0,26.800
8.77,49.0,27.000
8.83,49.0,27.200
8.9,50.0,27.400
8.96,51.0,27.600
9.03,51.0,27.800
9.1,52.0,28.000
9.16,52.0,28.200
9.23,52.0,28.400
9.3,52.0,28.600
9.37,53.0,28.800
9.43,54.0,29.000
9.5,54.0,29.200
9.56,54.0,29.400
9.63,54.0,29.600
9.7,54.0,29.800
9.76,55.0,30.000
9.83,55.0,30.200
9.9,55.0,30.400
9.96,55.0,30.600
10.03,56.0,30.800
10.1,56.0,31.000
10.16,55.0,31.200
10.23,55.0,31.400
10.3,56.0,31.600
10.36,56.0,31.800
10.43,56.0,32.000
10.5,56.0,32.200
10.56,58.0,32.400
10.63,58.0,32.600
10.7,59.0,32.800
10.76,60.0,33.000
10.83,60.0,33.200
10.9,62.0,33.400
10.96,63.0,33.600
11.03,64.0,33.800
11.09,64.0,34.000
11.16,65.0,34.200
11.23,66.0,34.400
11.29,67.0,34.600
11.36,68.0,34.800
11.43,69.0,35.000
11.5,70.0,35.200
11.56,71.0,35.400
11.63,72.0,35.600
11.69,73.0,35.800
11.76,75.0,36.000
11.83,75.0,36.200
11.9,77.0,36.400
11.96,78.0,36.600
12.03,79.0,36.800
12.09,80.0,37.000
12.16,81.0,37.200
12.23,83.0,37.400
12.29,83.0,37.600
12.36,85.0,37.800
12.43,86.0,38.000
12.49,88.0,38.200
12.56,90.0,38.400
12.63,91.0,38.600
12.69,91.0,38.800
12.76,91.0,39.000
12.83,92.0,39.200
12.89,93.0,39.400
12.96,93.0,39.600
13.03,94.0,39.800
13.09,94.0,40.000
13.16,95.0,40.200
13.23,96.0,40.400
13.29,97.0,40.600
13.36,98.0,40.800
13.42,101.0,41.000
13.49,102.0,41.200
13.56,104.0,41.400
13.63,106.0,41.600
13.69,108.0,41.800
13.76,110.0,42.000
13.82,112.0,42.200
13.89,114.0,42.400
13.96,116.0,42.600
14.03,119.0,42.800
14.09,120.0,43.000
14.16,123.0,43.200
14.22,124.0,43.400
14.29,126.0,43.600
14.36,127.0,43.800
14.42,128.0,44.000
14.49,129.0,44.200
14.56,129.0,44.400
14.62,129.0,44.600
14.69,128.0,44.800
14.76,127.0,45.000
14.82,127.0,45.200
14.89,128.0,45.400
14.96,128.0,45.600
15.03,130.0,45.800
15.09,131.0,46.000
15.16,132.0,46.200
15.22,133.0,46.400
15.29,134.0,46.600
15.36,134.0,46.800
15.42,134.0,47.000
15.49,134.0,47.200
15.56,130.0,47.400
15.62,120.0,47.600
15.69,108.0,47.800
15.76,100.0,48.000
15.82,100.0,48.200
15.89,101.0,48.400
15.96,102.0,48.600
16.03,102.0,48.800
16.09,101.0,49.000
16.16,100.0,49.200
16.22,100.0,49.400
16.29,101.0,49.600
16.36,101.0,49.800
16.42,101.0,50.000
16.49,101.0,50.200
16.56,100.0,50.400
16.62,98.0,50.600
16.69,97.0,50.800
16.76,95.0,51.000
16.82,94.0,51.200
16.89,93.0,51.400
16.96,91.0,51.600
17.02,91.0,51.800
17.09,90.0,52.000
17.16,90.0,52.200
17.22,89.0,52.400
17.29,89.0,52.600
17.36,88.0,52.800
17.42,88.0,53.000
17.49,88.0,53.200
17.56,88.0,53.400
17.62,88.0,53.600
17.69,87.0,53.800
17.76,87.0,54.000
17.82,87.0,54.200
17.89,87.0,54.400
17.96,86.0,54.600
18.02,86.0,54.800
18.09,86.0,55.000
18.16,86.0,55.200
18.22,87.0,55.400
18.29,88.0,55.600
18.36,89.0,55.800
18.42,89.0,56.000
18.49,83.0,56.200
18.56,69.0,56.400
18.62,51.0,56.600
18.66,46.0,56.700

File: SSP_2024-10-26_C1_NO.csv
Crossheadmm,LoadN,Timesec
0.0335,0.17559,0.112
0.0668,2.99704,0.212
0.1004,5.30959,0.312
0.1338,8.00721,0.412
0.167,10.795,0.512
0.2002,13.7836,0.612
0.2337,16.9813,0.712
0.267,19.8549,0.812
0.3002,22.6214,0.912
0.3336,26.2835,1.012
0.3669,28.7922,1.112
0.4002,32.0186,1.212
0.4335,35.2992,1.312
0.4669,38.7205,1.412
0.5002,41.9083,1.512
0.5335,45.4176,1.612
0.5668,48.685,1.712
0.6003,52.4472,1.812
0.6337,55.7557,1.912
0.6669,59.5293,2.012
0.7001,62.8638,2.112
0.7334,66.845,2.212
0.7668,70.7157,2.312
0.8,74.4152,2.412
0.8333,78.3547,2.512
0.8666,82.1451,2.612
0.9002,86.0659,2.712
0.9336,90.141,2.812
0.9669,94.4202,2.912
1.0001,98.2872,3.012
1.0334,102.46,3.112
1.0666,106.714,3.212
1.1001,110.935,3.312
1.1335,115.026,3.412
1.1669,119.412,3.512
1.2001,123.628,3.612
1.2335,127.936,3.712
1.2667,132.217,3.812
1.3001,136.578,3.912
1.3331,140.967,4.012
1.3663,145.578,4.112
1.3999,149.824,4.212
1.4336,154.639,4.312
1.4667,158.658,4.412
1.5,163.303,4.512
1.5334,167.629,4.612
1.5667,172.306,4.712
1.5999,176.7,4.812
1.6331,181.085,4.912
1.6665,185.597,5.012
1.7,190.211,5.112
1.7334,194.934,5.212
1.767,199.521,5.312
1.8003,203.947,5.412
1.8331,208.152,5.512
1.8659,212.586,5.612
1.8994,217.063,5.712
1.9331,221.467,5.812
1.9665,226.186,5.912
1.9998,230.341,6.012
2.0331,234.898,6.112
2.0664,239.005,6.212
2.0997,243.538,6.312
2.133,247.6,6.412
2.1663,251.911,6.512
2.1996,256.219,6.612
2.2331,260.333,6.712
2.2664,264.66,6.812
2.2999,269.09,6.912
2.3333,273.461,7.012
2.3667,277.829,7.112
2.3998,282.075,7.212
2.433,286.539,7.312
2.4663,290.899,7.412
2.4998,295.497,7.512
2.5331,300.078,7.612
2.5664,304.734,7.712
2.5997,309.114,7.812
2.6331,313.598,7.912
2.6664,318.078,8.012
2.6995,322.44,8.112
2.7329,326.988,8.212
2.7664,331.542,8.312
2.7995,336.015,8.412
2.833,340.832,8.512
2.8665,345.319,8.612
2.8998,349.905,8.712
2.933,354.514,8.812
2.9664,359.098,8.912
2.9998,363.674,9.012
3.0333,368.313,9.112
3.0665,372.6,9.212
3.0998,377.228,9.312
3.1331,381.891,9.412
3.1664,386.422,9.512
3.1997,390.942,9.612
3.2329,395.576,9.712
3.2662,399.758,9.812
3.2999,404.337,9.912
3.3333,406.35,10.012
3.3665,410.743,10.112
3.3998,408.26,10.212
3.4331,412.844,10.312
3.4664,407.837,10.412
3.4998,412.033,10.512
3.5331,417.027,10.612
3.5666,421.823,10.712
3.5998,426.68,10.812
3.6332,431.296,10.912
3.6665,435.604,11.012
3.6997,440.153,11.112
3.7329,443.866,11.212
3.7661,448.312,11.312
3.7997,450.869,11.412
3.8333,453.391,11.512
3.8666,449.069,11.612
3.8998,452.068,11.712
3.9333,454.402,11.812
3.9665,456.138,11.912
3.9999,458.37,12.012
4.0332,377.535,12.112
4.0666,267.883,12.212
4.1003,227.752,12.312
4.1338,223.305,12.412
4.1674,214.677,12.512
4.2007,214.191,12.612
4.2332,210.38,12.712
4.2665,193.387,12.812
4.3,191.451,12.912
4.3335,191.507,13.012
4.3669,188.763,13.112
4.4003,150.863,13.212
4.4337,144.846,13.312
4.467,143.82,13.412
4.5003,143.63,13.512
4.5336,142.729,13.612
4.5668,143.818,13.712
4.6001,145.115,13.812
4.6337,143.393,13.912
4.6671,138.648,14.012
4.7005,133.024,14.112
4.7338,131.414,14.212
4.7672,127.86,14.312
4.8003,125.431,14.412
4.8336,113.744,14.512
4.8668,99.5393,14.612
4.9004,97.7296,14.712
4.9336,98.2377,14.812
4.9668,98.7808,14.912
5.0002,99.2129,15.012
5.0337,99.402,15.112
5.067,99.8446,15.212
5.1001,100.947,15.312
5.1334,101.944,15.412
5.1669,103.385,15.512
5.2,104.685,15.612
5.2334,106.126,15.712
5.2669,107.495,15.812
5.3002,108.116,15.912
5.3335,106.112,16.012
5.3669,106.832,16.112
5.4002,108.108,16.212
5.4336,109.021,16.312
5.4669,93.7645,16.412
5.5001,86.5611,16.512
5.5335,86.6135,16.612
5.5668,87.8199,16.712
5.6001,88.8585,16.812
5.6333,89.992,16.912
5.6666,87.4022,17.012
5.7003,86.7505,17.112
5.7337,87.691,17.212
5.7669,88.2346,17.312
5.8002,88.3808,17.412
5.8334,89.812,17.512
5.8668,90.619,17.612
5.9001,91.5358,17.712
5.9334,92.4154,17.812
5.9669,92.7458,17.912
6.0002,93.1569,18.012
6.0335,92.5681,18.112
6.0669,90.6133,18.212
6.1,90.5896,18.312
6.1332,87.0844,18.412
6.1664,86.712,18.512
6.1999,86.5452,18.612
6.2336,86.2855,18.712
6.2667,86.5317,18.812
6.3,86.1322,18.912
6.3335,76.9144,19.012
6.3668,62.2721,19.112
6.4001,61.498,19.212
6.4333,61.972,19.312
6.4666,50.0768,19.412
6.4977,45.7541,19.504

File: SSP_2024-10-26_C2_NO.csv
Crossheadmm,LoadN,Timesec
0.0335,10.5461,0.112
0.0671,11.8199,0.212
0.1005,12.808,0.312
0.1338,13.6844,0.412
0.1672,14.6027,0.512
0.2005,15.6681,0.612
0.2337,16.3582,0.712
0.267,17.405,0.812
0.3003,18.4051,0.912
0.3338,19.0151,1.012
0.3671,19.7646,1.112
0.4005,20.8342,1.212
0.434,21.6981,1.312
0.4673,22.3957,1.412
0.5005,23.4439,1.512
0.5338,24.1219,1.612
0.5672,25.0571,1.712
0.6007,25.8934,1.812
0.634,26.9528,1.912
0.6674,27.7795,2.012
0.7007,28.662,2.112
0.734,29.6833,2.212
0.7673,30.5955,2.312
0.8005,31.4947,2.412
0.8337,32.4608,2.512
0.8672,33.5516,2.612
0.9006,34.5457,2.712
0.9342,35.8422,2.812
0.9674,36.874,2.912
1.0005,37.8163,3.012
1.0338,39.1472,3.112
1.0671,40.1787,3.212
1.1004,41.3987,3.312
1.134,42.5359,3.412
1.1674,43.6049,3.512
1.2007,44.9202,3.612
1.2341,46.1504,3.712
1.2675,47.4389,3.812
1.3009,48.7047,3.912
1.334,50.0055,4.012
1.3667,51.1714,4.112
1.4003,52.5741,4.212
1.434,53.8463,4.312
1.4673,55.2209,4.412
1.5006,56.518,4.512
1.5339,57.877,4.612
1.5672,59.1577,4.712
1.6005,60.5523,4.812
1.6338,61.8304,4.912
1.6672,63.3001,5.012
1.7006,64.6419,5.112
1.7339,65.9452,5.212
1.7673,67.518,5.312
1.8006,68.8933,5.412
1.834,70.377,5.512
1.8671,71.653,5.612
1.9004,73.0332,5.712
1.9338,74.3408,5.812
1.9673,75.8388,5.912
2.0004,77.1413,6.012
2.0337,78.7511,6.112
2.067,80.1522,6.212
2.1002,81.5506,6.312
2.1336,83.0667,6.412
2.167,84.3735,6.512
2.2004,85.7591,6.612
2.2338,87.3363,6.712
2.267,88.7831,6.812
2.3003,89.9066,6.912
2.3336,91.2241,7.012
2.3671,92.3392,7.112
2.4003,94.0912,7.212
2.4335,95.399,7.312
2.4671,96.6467,7.412
2.5005,98.3925,7.512
2.5338,99.7841,7.612
2.5671,101.403,7.712
2.6004,102.929,7.812
2.6337,104.662,7.912
2.667,106.147,8.012
2.7001,107.833,8.112
2.7337,109.492,8.212
2.7669,111.132,8.312
2.8004,112.975,8.412
2.8338,114.684,8.512
2.8671,116.573,8.612
2.9003,118.596,8.712
2.9336,120.128,8.812
2.9669,121.844,8.912
3.0004,123.8,9.012
3.0338,125.57,9.112
3.0671,127.378,9.212
3.1004,129.036,9.312
3.1338,131,9.412
3.167,133.001,9.512
3.2002,134.912,9.612
3.2334,136.721,9.712
3.2669,138.718,9.812
3.3003,140.59,9.912
3.3339,142.346,10.012
3.3671,144.386,10.112
3.4002,146.313,10.212
3.4335,148.059,10.312
3.4669,150.064,10.412
3.5003,151.881,10.512
3.5337,153.977,10.612
3.567,156.043,10.712
3.6003,157.747,10.812
3.6337,159.609,10.912
3.6672,161.504,11.012
3.7006,163.503,11.112
3.7336,165.332,11.212
3.7664,167.177,11.312
3.8,169.182,11.412
3.8336,171.28,11.512
3.8669,173.189,11.612
3.9002,175.037,11.712
3.9335,177.182,11.812
3.9668,179.088,11.912
4.0001,181.067,12.012
4.0333,183.163,12.112
4.0668,185.134,12.212
4.1001,187.225,12.312
4.1335,189.427,12.412
4.1669,191.385,12.512
4.2002,193.696,12.612
4.2335,195.695,12.712
4.2667,197.504,12.812
4.3,199.779,12.912
4.3335,201.795,13.012
4.3669,203.879,13.112
4.4001,206.102,13.212
4.4335,208.242,13.312
4.4668,210.293,13.412
4.4999,212.546,13.512
4.5333,214.627,13.612
4.5666,216.894,13.712
4.6,218.703,13.812
4.6334,220.955,13.912
4.6668,223.033,14.012
4.7002,225.182,14.112
4.7335,227.247,14.212
4.7669,229.475,14.312
4.8001,231.662,14.412
4.8334,233.826,14.512
4.867,236.039,14.612
4.9003,238.253,14.712
4.9336,240.42,14.812
4.967,242.527,14.912
5.0002,244.416,15.012
5.0336,246.605,15.112
5.0668,248.674,15.212
5.1,250.591,15.312
5.1335,252.686,15.412
5.1667,254.919,15.512
5.2003,256.785,15.612
5.2337,258.741,15.712
5.2669,260.989,15.812
5.3002,263.156,15.912
5.3335,265.13,16.012
5.3667,267.105,16.112
5.4002,269.109,16.212
5.4337,271.196,16.312
5.4671,273.205,16.412
5.5003,275.104,16.512
5.5336,277.163,16.612
5.5669,279.198,16.712
5.6001,280.869,16.812
5.6333,282.699,16.912
5.6666,284.507,17.012
5.7003,286.331,17.112
5.7338,288.03,17.212
5.767,290.046,17.312
5.8002,292.015,17.412
5.8335,294.112,17.512
5.8669,296.028,17.612
5.9003,298.068,17.712
5.9336,299.516,17.812
5.967,301.663,17.912
6.0004,303.493,18.012
6.0338,305.404,18.112
6.0673,307.36,18.212
6.1007,309.306,18.312
6.1336,311.156,18.412
6.1664,313.168,18.512
6.2,315.19,18.612
6.2337,317.241,18.712
6.267,318.917,18.812
6.3003,320.879,18.912
6.3336,319.859,19.012
6.367,321.284,19.112
6.4002,323.026,19.212
6.4335,325.067,19.312
6.4668,326.724,19.412
6.5003,328.55,19.512
6.5337,330.26,19.612
6.567,332.294,19.712
6.6004,333.801,19.812
6.6337,335.304,19.912
6.667,336.884,20.012
6.7002,337.854,20.112
6.7336,339.436,20.212
6.767,341.182,20.312
6.8003,342.839,20.412
6.8336,344.412,20.512
6.8668,346.137,20.612
6.9001,347.818,20.712
6.9335,349.106,20.812
6.9668,350.818,20.912
7,352.111,21.012
7.0336,353.39,21.112
7.0668,354.414,21.212
7.1,348.611,21.312
7.1335,344.346,21.412
7.1671,243.027,21.512
7.1915,9.19304,21.584

File: SSP_2024-10-27_C2_OPER_TestRun1.csv
Crossheadmm,LoadN,Timesec
0.0598,0.0501761,0.214
0.2269,0.109228,0.714
0.3936,0.140701,1.214
0.5605,0.215138,1.714
0.7271,0.229544,2.214
0.8937,0.35655,2.714
1.06,0.337074,3.214
1.227,0.482491,3.714
1.3939,0.546643,4.214
1.56,0.614496,4.714
1.727,0.859679,5.214
1.8935,0.911115,5.714
2.0601,1.1631,6.214
2.2269,1.45409,6.714
2.3935,1.46259,7.214
2.5602,1.7792,7.714
2.7268,1.9091,8.214
2.8934,2.41901,8.714
3.0603,2.54141,9.214
3.2269,2.8813,9.714
3.3934,3.44754,10.214
3.5604,3.68997,10.714
3.7269,4.22256,11.214
3.8934,4.73701,11.714
4.0603,5.25431,12.214
4.2269,6.00652,12.714
4.3937,6.57464,13.214
4.5602,7.15493,13.714
4.7273,7.74756,14.214
4.8936,8.53646,14.714
5.0601,9.19712,15.214
5.227,9.83742,15.714
5.3937,10.4571,16.214
5.5601,11.2672,16.714
5.7268,12.2498,17.214
5.8933,12.8895,17.714
6.0601,13.7684,18.214
6.2267,14.4965,18.714
6.3932,15.5102,19.214
6.5601,16.1306,19.714
6.7267,17.0713,20.214
6.8932,17.7919,20.714
7.0601,18.3564,21.214
7.2267,18.8204,21.714
7.3935,19.9698,22.214
7.5602,20.698,22.714
7.7268,21.5569,23.214
7.8936,22.3966,23.714
8.0603,22.8004,24.214
8.2267,23.2367,24.714
8.3937,24.0624,25.214
8.5605,25.1906,25.714
8.727,26.0039,26.214
8.8938,26.9904,26.714
9.0603,27.9995,27.214
9.2272,28.9067,27.714
9.3939,29.7013,28.214
9.5606,30.5008,28.714
9.7271,30.9842,29.214
9.8934,30.0189,29.714
10.0602,29.562,30.214
10.227,30.5851,30.714
10.3932,31.7455,31.214
10.56,32.8486,31.714
10.7267,33.8005,32.214
10.8933,34.4154,32.714
11.0597,35.329,33.214
11.2266,36.0994,33.714
11.3936,37.0354,34.214
11.5601,37.6747,34.714
11.7267,38.6478,35.214
11.8938,39.3503,35.714
12.06,39.8129,36.214
12.2269,40.4218,36.714
12.3937,41.0626,37.214
12.5602,41.7817,37.714
12.727,42.1319,38.214
12.8937,42.7972,38.714
13.0603,43.3591,39.214
13.2271,43.9905,39.714
13.3938,44.6734,40.214
13.5602,44.9724,40.714
13.7271,45.1002,41.214
13.8934,44.033,41.714
14.0601,42.1255,42.214
14.227,43.0408,42.714
14.3936,44.7946,43.214
14.5603,45.2794,43.714
14.7267,46.7221,44.214
14.8934,47.3657,44.714
15.0601,48.214,45.214
15.2267,48.8885,45.714
15.3932,49.7372,46.214
15.5603,50.4151,46.714
15.7268,51.1134,47.214
15.8935,51.8362,47.714
16.0602,52.3777,48.214
16.227,53.2131,48.714
16.3938,53.8275,49.214
16.5601,54.3447,49.714
16.7272,55.1896,50.214
16.8937,55.7315,50.714
17.0602,56.4917,51.214
17.2271,56.8636,51.714
17.3936,57.2102,52.214
17.5602,57.8625,52.714
17.7269,58.3019,53.214
17.8934,58.7671,53.714
18.0602,59.5621,54.214
18.2265,60.4139,54.714
18.3934,61.2436,55.214
18.5602,61.9649,55.714
18.7265,62.5511,56.214
18.8933,63.0401,56.714
19.0602,63.09,57.214
19.2263,62.2871,57.714
19.3935,59.555,58.214
19.5601,61.2108,58.714
19.7268,62.9712,59.214
19.8935,64.5136,59.714
20.06,65.4451,60.214
20.2268,66.4814,60.714
20.3937,67.5048,61.214
20.5604,68.5552,61.714
20.7269,69.4,62.214
20.8937,70.4751,62.714
21.0604,71.3391,63.214
21.2271,71.9685,63.714
21.3937,73.0363,64.214
21.5607,73.6764,64.714
21.7272,74.2824,65.214
21.8936,75.0037,65.714
22.0605,76.0959,66.214
22.227,76.8169,66.714
22.3937,77.017,67.214
22.5601,77.4046,67.714
22.7268,77.5334,68.214
22.8935,77.3483,68.714
23.06,78.0352,69.214
23.2265,78.873,69.714
23.3934,79.797,70.214
23.5599,80.7465,70.714
23.7266,81.7006,71.214
23.8936,82.6311,71.714
24.0599,83.4772,72.214
24.2267,84.3201,72.714
24.3935,85.0985,73.214
24.5601,85.7313,73.714
24.7268,86.0078,74.214
24.8934,86.4175,74.714
25.0601,87.0043,75.214
25.227,87.6564,75.714
25.3933,88.5495,76.214
25.5604,89.3632,76.714
25.7271,90.5466,77.214
25.8935,91.33,77.714
26.0602,91.9725,78.214
26.2268,92.6651,78.714
26.3934,93.5868,79.214
26.5603,94.1336,79.714
26.7267,94.9042,80.214
26.8936,95.4055,80.714
27.0602,95.5928,81.214
27.2267,95.4618,81.714
27.3933,94.8407,82.214
27.56,95.2043,82.714
27.7269,96.3758,83.214
27.8934,97.6721,83.714
28.06,98.919,84.214
28.2268,100.016,84.714
28.3936,101.122,85.214
28.5603,102.221,85.714
28.7271,102.978,86.214
28.8934,104.013,86.714
29.0602,104.948,87.214
29.227,105.66,87.714
29.3937,106.519,88.214
29.5602,107.189,88.714
29.7268,107.792,89.214
29.8937,108.318,89.714
30.0603,108.697,90.214
30.2265,109.014,90.714
30.3936,109.174,91.214
30.5604,108.945,91.714
30.7267,108.596,92.214
30.8935,108.993,92.714
31.0602,105.202,93.214
31.2265,99.3017,93.714
31.3934,81.335,94.214
31.5599,82.9585,94.714
31.7267,86.6427,95.214
31.8935,90.4049,95.714
32.0599,92.7285,96.214
32.2268,96.1928,96.714
32.3934,98.0961,97.214
32.5602,99.51,97.714
32.7267,101.871,98.214
32.8933,103.712,98.714
33.06,105.135,99.214
33.2267,107.338,99.714
33.3936,109.001,100.214
33.5605,110.645,100.714
33.7269,112.138,101.214
33.8936,113.493,101.714
34.0605,114.798,102.214
34.2269,115.854,102.714
34.3937,116.891,103.214
34.5601,117.904,103.714
34.727,118.848,104.214
34.8938,119.796,104.714
35.0601,120.781,105.214
35.2269,121.491,105.714
35.3935,122.251,106.214
35.5601,122.974,106.714
35.7268,123.821,107.214
35.8936,124.49,107.714
36.0601,125.089,108.214
36.2267,126.153,108.714
36.3932,126.5,109.214
36.5601,127.624,109.714
36.7266,128.204,110.214
36.8931,129.138,110.714
37.06,129.851,111.214
37.2267,130.594,111.714
37.393,131.652,112.214
37.5601,132.447,112.714
37.7268,133.604,113.214
37.8934,134.094,113.714
38.0602,134.832,114.214
38.227,135.719,114.714
38.3934,136.497,115.214
38.5602,137.295,115.714
38.7269,137.867,116.214
38.8938,138.799,116.714
39.0602,139.27,117.214
39.2269,139.92,117.714
39.3936,140.895,118.214
39.5601,141.684,118.714
39.727,142.354,119.214
39.8932,142.832,119.714
40.0601,143.419,120.214
40.2268,144.688,120.714
40.3932,145.048,121.214
40.5601,145.992,121.714
40.727,146.214,122.214
40.8933,147.518,122.714
41.0601,148.146,123.214
41.2267,148.904,123.714
41.3935,149.391,124.214
41.5601,150.077,124.714
41.7264,150.939,125.214
41.8937,151.094,125.714
42.0602,151.898,126.214
42.2268,152.212,126.714
42.3936,153.612,127.214
42.5603,154.581,127.714
42.7269,155.441,128.214
42.8936,156.228,128.714
43.0604,157.495,129.214
43.2269,158.26,129.714
43.3935,158.792,130.214
43.5601,159.789,130.714
43.7269,160.834,131.214
43.8931,161.676,131.714
44.0599,162.678,132.214
44.2266,163.072,132.714
44.3932,162.497,133.214
44.5597,163.235,133.714
44.7267,163.889,134.214
44.8933,164.336,134.714
45.0599,163.839,135.214
45.2264,164.679,135.714
45.3934,164.414,136.214
45.5599,166.037,136.714
45.7266,166.601,137.214
45.8935,167.278,137.714
46.0602,167.362,138.214
46.2269,167.867,138.714
46.3937,166.982,139.214
46.5602,21.8263,139.714
46.5665,1.8184,139.734

File: SSP_2025-03-17_D2_NO.csv
Crossheadmm,LoadN,Timesec
0.0337,72.2243,0.112
0.1005,105.638,0.312
0.1676,114.23,0.512
0.2342,112.656,0.712
0.3007,110.686,0.912
0.3676,110.969,1.112
0.4343,126.134,1.312
0.5007,162.85,1.512
0.5673,178.757,1.712
0.6339,184.968,1.912
0.7006,187.626,2.112
0.7672,188.341,2.312
0.8339,189.019,2.512
0.9006,190.172,2.712
0.9673,191.247,2.912
1.0339,192.055,3.112
1.1006,193.292,3.312
1.1671,194.331,3.512
1.2338,195.854,3.712
1.3005,197.201,3.912
1.3672,198.391,4.112
1.4338,199.491,4.312
1.5005,200.697,4.512
1.5673,201.921,4.712
1.6338,203.123,4.912
1.7002,204.231,5.112
1.7674,205.925,5.312
1.8336,205.951,5.512
1.9004,207.194,5.712
1.9671,208.427,5.912
2.0339,209.934,6.112
2.1005,210.589,6.312
2.167,211.684,6.512
2.2337,213.063,6.712
2.3007,214.697,6.912
2.3676,216.133,7.112
2.4335,217.65,7.312
2.5003,219.323,7.512
2.5672,221.329,7.712
2.6338,222.905,7.912
2.7004,224.408,8.112
2.7672,225.689,8.312
2.8339,226.922,8.512
2.9003,228.369,8.712
2.9671,230.46,8.912
3.0337,232.129,9.112
3.1004,234.274,9.312
3.1671,236.656,9.512
3.2338,237.92,9.712
3.3006,239.901,9.912
3.3673,241.359,10.112
3.4339,242.658,10.312
3.5006,244.5,10.512
3.5672,246.667,10.712
3.6339,248.615,10.912
3.7006,251.072,11.112
3.7673,253.454,11.312
3.834,255.602,11.512
3.9007,258.431,11.712
3.9675,259.503,11.912
4.034,259.21,12.112
4.1005,259.149,12.312
4.1676,259.867,12.512
4.2339,259.247,12.712
4.3006,254.741,12.912
4.3674,259.201,13.112
4.4342,262.164,13.312
4.5007,265.399,13.512
4.5673,268.108,13.712
4.6341,270.355,13.912
4.7009,273.012,14.112
4.7678,273.443,14.312
4.8339,273.661,14.512
4.9006,275.446,14.712
4.9675,276.395,14.912
5.0341,237.322,15.112
5.1007,228.76,15.312
5.1677,200.776,15.512
5.2342,204.282,15.712
5.3005,207.882,15.912
5.3673,181.215,16.112
5.434,184.604,16.312
5.5004,189.004,16.512
5.5671,187.321,16.712
5.634,101.198,16.912
5.7007,87.4535,17.112
5.7673,76.6396,17.312
5.8339,73.3034,17.512
5.9006,43.1217,17.712
5.9671,42.0155,17.912
6.0339,41.8753,18.112
6.1007,41.1495,18.312
6.1673,41.3021,18.512
6.234,41.4529,18.712
6.3006,41.2529,18.912
6.3674,41.1197,19.112
6.4339,41.1825,19.312
6.5005,41.1392,19.512
6.5675,40.8248,19.712
6.6338,40.6882,19.912
6.7006,40.7838,20.112
6.7673,40.7095,20.312
6.8341,40.6627,20.512
6.9005,40.63,20.712
6.9672,40.4948,20.912
7.0339,40.4403,21.112
7.1008,40.5913,21.312
7.1674,40.6163,21.512
7.2338,40.7955,21.712
7.3004,40.7687,21.912
7.3673,40.4065,22.112
7.4339,40.5245,22.312
7.5006,40.7265,22.512
7.5674,40.9264,22.712
7.6339,40.8611,22.912
7.7003,40.9871,23.112
7.7673,41.1882,23.312
7.8339,41.5344,23.512
7.9004,41.9946,23.712
7.9671,42.5144,23.912
8.034,42.7297,24.112
8.1008,43.2546,24.312
8.1675,43.5469,24.512
8.2341,43.8297,24.712
8.3008,44.0099,24.912
8.3673,43.8811,25.112
8.4341,43.843,25.312
8.5008,44.2789,25.512
8.5675,44.3205,25.712
8.6342,44.4731,25.912
8.7008,44.4403,26.112
8.7676,44.6064,26.312
8.8341,44.9117,26.512
8.9008,45.0184,26.712
8.9677,45.2107,26.912
9.0341,45.3616,27.112
9.1009,45.5138,27.312
9.1677,45.6482,27.512
9.2344,45.8387,27.712
9.3008,46.2848,27.912
9.3675,46.582,28.112
9.4343,46.639,28.312
9.5011,46.8025,28.512
9.5676,47.1825,28.712
9.634,47.3965,28.912
9.7008,47.3067,29.112
9.7676,47.3791,29.312
9.8342,47.5528,29.512
9.9009,47.7145,29.712
9.9678,47.6567,29.912
10.0342,46.698,30.112
10.1005,47.0045,30.312
10.1676,46.5933,30.512
10.2342,46.5848,30.712
10.3005,46.3762,30.912
10.3673,46.5767,31.112
10.4341,46.3633,31.312
10.5009,46.2334,31.512
10.5674,46.2275,31.712
10.6341,45.7647,31.912
10.7007,46.2257,32.112
10.7673,46.426,32.312
10.834,46.4268,32.512
10.9007,46.6141,32.712
10.9674,46.6287,32.912
11.0341,47.1246,33.112
11.1006,47.6017,33.312
11.1674,47.7606,33.512
11.2338,48.2842,33.712
11.3005,47.6855,33.912
11.3674,47.7309,34.112
11.4338,46.9829,34.312
11.5006,47.2408,34.512
11.5673,47.3659,34.712
11.634,47.4505,34.912
11.7005,46.5101,35.112
11.7672,46.8028,35.312
11.8339,47.4756,35.512
11.9008,47.2777,35.712
11.9672,47.2888,35.912
12.0338,47.4663,36.112
12.1005,47.415,36.312
12.1672,47.7558,36.512
12.2339,44.2202,36.712
12.3007,44.4595,36.912
12.3676,43.3394,37.112
12.4339,31.8375,37.312
12.5004,31.662,37.512
12.5674,31.7757,37.712
12.6341,31.8696,37.912
12.7005,31.8266,38.112
12.7673,31.8417,38.312
12.8341,32.0732,38.512
12.9009,31.9593,38.712