Folder: SSPProjectEK/Data/Selected_data

Note: README.md
# SSP Project
Comparative evaluation of surgical methods in the treatment of chronic irreparable supraspinatus tears.

Biomechanics analysis pipeline and database for the supraspinatus tear surgical comparison study.

## Quick Start

### 1. Install Dependencies
```bash
pip install -r requirements.txt
```

### 2. Convert B-series (optional)
```bash
cd Data
python convert_b_series.py
```

### 3. Run Analysis
```bash
cd Data
python run_analysis.py
```

### 4. Update Database
```bash
cd Data/database
python update_results.py
```

### 5. Launch Interactive App
```bash
streamlit run Data/app.py
```

Manual stiffness selections are stored in:
- `Data/Results/manual_stiffness.csv`
- Database table `manual_results` in `Data/database/ssp_study.db`

## Configuration

All paths and group assignments live in `Data/config.json`.

Key fields:
- `data_paths.selected_data_dir`: input CSVs
- `data_paths.results_dir`: analysis outputs
- `groups.TFL_IDS` / `groups.MSC_IDS`: subgroup assignments

## Project Layout

```
Data/
├── config.json                 # Central config (paths + group IDs)
├── analysis_pipeline.py        # Canonical analysis logic
├── run_analysis.py             # Entry point script
├── convert_b_series.py         # Convert legacy B-series TXT files
├── app.py                      # Interactive Streamlit UI
├── app_utils.py                # App helper utilities
├── Selected_data/              # Input CSVs
├── Results/                    # Output results + plots
└── database/                   # SQLite DB + scripts
```

## Tests

```bash
pytest
```

File: SSP_2022-12-06_B10_NO.csv
Crossheadmm,LoadN,Timesec
0.0,0.78,0.000
0.01,1.26,0.200
0.03,1.37,0.400
0.05,1.65,0.600
0.06,1.98,0.800
0.08,2.32,1.000
0.1,2.75,1.200
0.11,2.91,1.400
0.13,3.31,1.600
0.15,3.76,1.800
0.16,4.18,2.000
0.18,4.69,2.200
0.2,5.39,2.400
0.21,5.57,2.600
0.23,6.08,2.800
0.25,6.66,3.000
0.26,7.24,3.200
0.28,8.11,3.400
0.3,8.84,3.600
0.31,9.71,3.800
0.33,10.68,4.000
0.35,11.61,4.200
0.36,12.63,4.400
0.38,13.51,4.600
0.4,14.62,4.800
0.41,15.77,5.000
0.43,16.9,5.200
0.45,18.03,5.400
0.46,19.4,5.600
0.48,20.55,5.800
0.5,21.92,6.000
0.51,23.19,6.200
0.53,24.76,6.400
0.55,26.27,6.600
0.56,27.83,6.800
0.58,29.38,7.000
0.6,30.91,7.200
0.61,32.61,7.400
0.63,34.22,7.600
0.65,35.84,7.800
0.66,37.59,8.000
0.68,39.59,8.200
0.7,41.44,8.400
0.71,43.33,8.600
0.73,45.14,8.800
0.75,46.94,9.000
0.76,48.99,9.200
0.78,50.95,9.400
0.8,53.04,9.600
0.81,55.11,9.800
0.83,57.26,10.000
0.85,59.52,10.200
0.86,61.7,10.400
0.88,63.85,10.600
0.9,66.34,10.800
0.91,68.72,11.000
0.93,71.23,11.200
0.95,73.69,11.400
0.96,76.15,11.600
0.98,78.63,11.800
1.0,81.15,12.000
1.01,83.72,12.200
1.03,86.35,12.400
1.05,89.08,12.600
1.06,91.65,12.800
1.08,94.37,13.000
1.1,97.28,13.200
1.11,100.19,13.400
1.13,103.04,13.600
1.15,106.0,13.800
1.16,108.81,14.000
1.18,111.88,14.200
1.2,115.0,14.400
1.21,117.9,14.600
1.23,121.05,14.800
1.25,124.26,15.000
1.26,127.13,15.200
1.28,130.49,15.400
1.3,133.59,15.600
1.31,136.82,15.800
1.33,139.89,16.000
1.35,137.92,16.200
1.36,141.43,16.400
1.38,144.91,16.600
1.4,148.34,16.800
1.41,151.64,17.000
1.43,155.05,17.200
1.45,158.47,17.400
1.46,161.69,17.600
1.48,165.18,17.800
1.5,168.51,18.000
1.51,171.73,18.200
1.53,174.85,18.400
1.55,178.14,18.600
1.56,181.48,18.800
1.58,184.56,19.000
1.6,187.73,19.200
1.61,189.46,19.400
1.63,151.29,19.600
1.65,156.37,19.800
1.66,160.74,20.000
1.68,165.3,20.200
1.7,169.66,20.400
1.71,174.11,20.600
1.73,178.46,20.800
1.75,182.79,21.000
1.76,186.86,21.200
1.78,190.96,21.400
1.8,194.87,21.600
1.81,198.85,21.800
1.83,202.59,22.000
1.85,206.28,22.200
1.86,209.84,22.400
1.88,213.49,22.600
1.9,217.19,22.800
1.91,220.72,23.000
1.93,224.27,23.200
1.95,227.83,23.400
1.96,231.77,23.600
1.98,235.13,23.800
2.0,238.96,24.000
2.01,242.39,24.200
2.03,246.0,24.400
2.05,249.57,24.600
2.06,253.24,24.800
2.08,256.93,25.000
2.1,260.55,25.200
2.11,264.04,25.400
2.13,267.73,25.600
2.15,271.27,25.800
2.16,274.85,26.000
2.18,278.49,26.200
2.2,281.89,26.400
2.21,285.51,26.600
2.23,289.1,26.800
2.25,292.7,27.000
2.26,296.27,27.200
2.28,300.03,27.400
2.3,303.84,27.600
2.31,307.49,27.800
2.33,311.31,28.000
2.35,314.77,28.200
2.36,318.66,28.400
2.38,322.38,28.600
2.4,326.2,28.800
2.41,330.0,29.000
2.43,333.72,29.200
2.45,337.51,29.400
2.46,341.19,29.600
2.48,345.05,29.800
2.5,348.82,30.000
2.51,352.49,30.200
2.53,356.05,30.400
2.55,359.77,30.600
2.56,363.38,30.800
2.58,367.05,31.000
2.59,370.6,31.200
2.61,374.16,31.400
2.63,377.65,31.600
2.65,381.1,31.800
2.66,384.79,32.000
2.68,388.06,32.200
2.7,391.5,32.400
2.71,395.01,32.600
2.73,398.27,32.800
2.75,401.75,33.000
2.76,405.06,33.200
2.78,408.47,33.400
2.8,411.67,33.600
2.81,415.15,33.800
2.83,418.19,34.000
2.85,421.45,34.200
2.86,424.45,34.400
2.88,427.71,34.600
2.9,430.99,34.800
2.91,434.01,35.000
2.93,437.04,35.200
2.95,440.05,35.400
2.96,443.04,35.600
2.98,446.09,35.800
3.0,448.98,36.000
3.01,452.04,36.200
3.03,454.68,36.400
3.05,457.57,36.600
3.06,460.35,36.800
3.08,463.01,37.000
3.1,465.56,37.200
3.11,468.21,37.400
3.13,469.62,37.600
3.15,472.49,37.800
3.16,474.98,38.000
3.18,477.37,38.200
3.2,479.58,38.400
3.21,481.7,38.600
3.23,483.05,38.800
3.25,480.32,39.000
3.26,-2.46,39.200

File: SSP_2022-12-08_B5_NO.csv
Crossheadmm,LoadN,Timesec
0.0,6.45,0.000
0.02,6.64,0.200
0.04,7.43,0.400
0.05,8.33,0.600
0.07,8.94,0.800
0.09,10.07,1.000
0.1,10.69,1.200
0.12,11.38,1.400
0.14,12.04,1.600
0.15,12.76,1.800
0.17,13.52,2.000
0.19,14.58,2.200
0.2,15.4,2.400
0.22,15.98,2.600
0.24,16.7,2.800
0.25,17.52,3.000
0.27,18.43,3.200
0.29,19.45,3.400
0.3,20.34,3.600
0.32,20.98,3.800
0.34,21.98,4.000
0.35,22.88,4.200
0.37,23.78,4.400
0.39,24.99,4.600
0.4,25.8,4.800
0.42,26.65,5.000
0.44,27.71,5.200
0.45,29.02,5.400
0.47,29.83,5.600
0.49,30.63,5.800
0.5,31.73,6.000
0.52,33.11,6.200
0.54,33.85,6.400
0.55,35.09,6.600
0.57,36.01,6.800
0.59,37.15,7.000
0.6,38.31,7.200
0.62,39.49,7.400
0.64,40.66,7.600
0.65,41.76,7.800
0.67,43.06,8.000
0.69,44.13,8.200
0.7,45.55,8.400
0.72,46.52,8.600
0.74,47.85,8.800
0.75,49.05,9.000
0.77,50.27,9.200
0.79,51.69,9.400
0.8,53.01,9.600
0.82,54.05,9.800
0.84,55.68,10.000
0.85,57.03,10.200
0.87,58.36,10.400
0.89,59.66,10.600
0.9,60.9,10.800
0.92,62.42,11.000
0.94,64.04,11.200
0.95,65.36,11.400
0.97,66.81,11.600
0.99,68.39,11.800
1.0,69.9,12.000
1.02,71.14,12.200
1.04,72.65,12.400
1.05,74.21,12.600
1.07,75.91,12.800
1.09,77.62,13.000
1.1,79.06,13.200
1.12,80.94,13.400
1.14,82.33,13.600
1.15,83.81,13.800
1.17,85.79,14.000
1.19,73.3,14.200
1.2,70.69,14.400
1.22,72.97,14.600
1.24,75.32,14.800
1.25,78.02,15.000
1.27,80.13,15.200
1.29,82.25,15.400
1.3,84.51,15.600
1.32,86.63,15.800
1.34,88.7,16.000
1.35,90.99,16.200
1.37,92.99,16.400
1.39,94.92,16.600
1.4,96.84,16.800
1.42,98.95,17.000
1.44,101.15,17.200
1.45,102.96,17.400
1.47,105.14,17.600
1.49,106.99,17.800
1.5,109.15,18.000
1.52,111.25,18.200
1.54,113.03,18.400
1.55,115.3,18.600
1.57,117.5,18.800
1.59,119.56,19.000
1.6,121.73,19.200
1.62,123.88,19.400
1.64,125.94,19.600
1.65,128.04,19.800
1.67,130.19,20.000
1.69,132.65,20.200
1.7,135.06,20.400
1.72,137.35,20.600
1.74,139.45,20.800
1.75,141.77,21.000
1.77,144.0,21.200
1.79,146.46,21.400
1.8,148.78,21.600
1.82,151.17,21.800
1.84,153.26,22.000
1.85,155.43,22.200
1.87,157.76,22.400
1.89,159.9,22.600
1.9,162.36,22.800
1.92,164.74,23.000
1.94,167.02,23.200
1.95,169.5,23.400
1.97,171.92,23.600
1.99,174.38,23.800
2.0,176.77,24.000
2.02,179.45,24.200
2.04,181.51,24.400
2.05,183.95,24.600
2.07,185.39,24.800
2.09,186.6,25.000
2.1,188.16,25.200
2.12,170.38,25.400
2.14,166.94,25.600
2.15,170.54,25.800
2.17,173.37,26.000
2.19,176.45,26.200
2.2,174.26,26.400
2.22,169.61,26.600
2.24,167.14,26.800
2.25,169.21,27.000
2.27,172.3,27.200
2.29,175.04,27.400
2.3,176.81,27.600
2.32,179.53,27.800
2.34,182.3,28.000
2.35,185.17,28.200
2.37,188.04,28.400
2.39,190.16,28.600
2.4,192.79,28.800
2.42,195.01,29.000
2.44,197.86,29.200
2.45,199.98,29.400
2.47,202.65,29.600
2.49,205.21,29.800
2.5,208.19,30.000
2.52,210.11,30.200
2.54,212.21,30.400
2.55,214.92,30.600
2.57,217.67,30.800
2.59,218.22,31.000
2.6,220.31,31.200
2.62,222.15,31.400
2.64,224.33,31.600
2.65,225.72,31.800
2.67,228.56,32.000
2.69,230.82,32.200
2.7,233.66,32.400
2.72,236.53,32.600
2.74,239.13,32.800
2.75,241.95,33.000
2.77,243.95,33.200
2.79,246.7,33.400
2.8,249.31,33.600
2.82,252.03,33.800
2.84,254.31,34.000
2.85,256.72,34.200
2.87,258.81,34.400
2.89,259.37,34.600
2.9,261.23,34.800
2.92,263.1,35.000
2.94,265.56,35.200
2.95,268.09,35.400
2.97,270.81,35.600
2.99,273.34,35.800
3.0,276.19,36.000
3.02,278.63,36.200
3.04,280.99,36.400
3.05,283.87,36.600
3.07,284.14,36.800
3.09,285.02,37.000
3.1,286.5,37.200
3.12,286.9,37.400
3.14,287.37,37.600
3.15,289.78,37.800
3.17,291.43,38.000
3.19,293.67,38.200
3.2,296.0,38.400
3.22,297.12,38.600
3.24,297.69,38.800
3.25,297.86,39.000
3.27,300.55,39.200
3.29,302.97,39.400
3.3,305.35,39.600
3.32,307.63,39.800
3.34,307.98,40.000
3.35,302.87,40.200
3.37,303.11,40.400
3.39,304.36,40.600
3.4,305.9,40.800
3.42,308.28,41.000
3.44,309.78,41.200
3.45,311.05,41.400
3.47,312.11,41.600
3.49,313.05,41.800
3.5,313.9,42.000
3.52,312.74,42.200
3.54,313.61,42.400
3.55,314.93,42.600
3.57,316.62,42.800
3.59,317.58,43.000
3.6,318.61,43.200
3.62,318.6,43.400
3.64,317.08,43.600
3.65,317.04,43.800
3.67,318.14,44.000
3.69,319.91,44.200
3.7,322.18,44.400
3.72,323.11,44.600
3.74,323.3,44.800
3.75,324.96,45.000
3.77,326.6,45.200
3.79,327.59,45.400
3.8,329.16,45.600
3.82,331.05,45.800
3.84,332.82,46.000
3.85,334.73,46.200
3.87,336.59,46.400
3.89,337.44,46.600
3.9,338.84,46.800
3.92,340.07,47.000
3.94,341.01,47.200
3.95,341.5,47.400
3.97,341.85,47.600
3.99,334.19,47.800
4.0,332.83,48.000
4.02,330.38,48.200
4.04,327.71,48.400
4.05,325.43,48.600
4.07,317.57,48.800
4.09,315.81,49.000
4.1,316.54,49.200
4.12,316.44,49.400
4.14,314.01,49.600
4.15,301.85,49.800
4.17,208.45,50.000
4.19,183.19,50.200
4.2,182.53,50.300

File: SSP_2022-12-08_B11_NO.csv
Crossheadmm,LoadN,Timesec
0.0,0.22,0.000
0.02,0.01,0.200
0.04,0.18,0.400
0.05,0.04,0.600
0.07,0.2,0.800
0.09,0.07,1.000
0.1,0.2,1.200
0.12,0.06,1.400
0.14,0.23,1.600
0.15,0.16,1.800
0.17,0.06,2.000
0.19,0.16,2.200
0.2,0.34,2.400
0.22,0.26,2.600
0.24,0.1,2.800
0.25,0.4,3.000
0.27,0.51,3.200
0.29,0.94,3.400
0.3,0.91,3.600
0.32,1.55,3.800
0.34,2.1,4.000
0.35,2.63,4.200
0.37,3.51,4.400
0.39,4.19,4.600
0.4,4.55,4.800
0.42,4.98,5.000
0.44,5.81,5.200
0.45,6.9,5.400
0.47,7.9,5.600
0.49,8.9,5.800
0.5,9.97,6.000
0.52,10.99,6.200
0.54,12.14,6.400
0.55,13.43,6.600
0.57,14.68,6.800
0.59,16.34,7.000
0.6,18.12,7.200
0.62,19.73,7.400
0.64,21.66,7.600
0.65,23.76,7.800
0.67,25.7,8.000
0.69,28.07,8.200
0.7,30.2,8.400
0.72,32.74,8.600
0.74,35.3,8.800
0.75,37.63,9.000
0.77,40.18,9.200
0.79,42.94,9.400
0.8,45.63,9.600
0.82,48.31,9.800
0.84,51.0,10.000
0.85,53.9,10.200
0.87,56.84,10.400
0.89,59.83,10.600
0.9,62.85,10.800
0.92,65.89,11.000
0.94,69.1,11.200
0.95,72.23,11.400
0.97,75.51,11.600
0.99,78.43,11.800
1.0,81.69,12.000
1.02,84.83,12.200
1.04,88.01,12.400
1.05,91.24,12.600
1.07,94.42,12.800
1.09,97.73,13.000
1.1,101.11,13.200
1.12,104.35,13.400
1.14,107.73,13.600
1.15,111.14,13.800
1.17,114.31,14.000
1.19,117.65,14.200
1.2,121.3,14.400
1.22,124.81,14.600
1.24,127.93,14.800
1.25,131.52,15.000
1.27,135.05,15.200
1.29,138.31,15.400
1.3,142.07,15.600
1.32,145.17,15.800
1.34,148.74,16.000
1.35,152.65,16.200
1.37,156.32,16.400
1.39,159.74,16.600
1.4,163.31,16.800
1.42,166.7,17.000
1.44,170.34,17.200
1.45,174.13,17.400
1.47,177.34,17.600
1.49,181.03,17.800
1.5,184.6,18.000
1.52,188.51,18.200
1.54,191.64,18.400
1.55,195.24,18.600
1.57,198.54,18.800
1.59,201.87,19.000
1.6,205.28,19.200
1.62,208.7,19.400
1.64,212.2,19.600
1.65,216.0,19.800
1.67,219.39,20.000
1.69,222.64,20.200
1.7,226.02,20.400
1.72,229.44,20.600
1.74,233.04,20.800
1.75,236.06,21.000
1.77,239.62,21.200
1.79,242.86,21.400
1.8,246.28,21.600
1.82,249.55,21.800
1.84,253.01,22.000
1.85,256.38,22.200
1.87,259.53,22.400
1.89,262.85,22.600
1.9,266.19,22.800
1.92,269.45,23.000
1.94,272.91,23.200
1.95,275.97,23.400
1.97,279.29,23.600
1.99,282.51,23.800
2.0,285.57,24.000
2.02,288.39,24.200
2.04,291.64,24.400
2.05,294.85,24.600
2.07,297.92,24.800
2.09,301.06,25.000
2.1,303.98,25.200
2.12,306.86,25.400
2.14,309.77,25.600
2.15,312.78,25.800
2.17,315.81,26.000
2.19,318.8,26.200
2.2,321.78,26.400
2.22,324.48,26.600
2.24,327.69,26.800
2.25,330.41,27.000
2.27,333.54,27.200
2.29,336.3,27.400
2.3,339.42,27.600
2.32,342.05,27.800
2.34,345.06,28.000
2.35,347.97,28.200
2.37,350.88,28.400
2.39,353.69,28.600
2.4,356.41,28.800
2.42,359.3,29.000
2.44,362.03,29.200
2.45,364.3,29.400
2.47,366.99,29.600
2.49,369.05,29.800
2.5,371.49,30.000
2.52,374.17,30.200
2.54,376.77,30.400
2.55,379.34,30.600
2.57,381.82,30.800
2.59,384.72,31.000
2.6,387.32,31.200
2.62,390.22,31.400
2.64,391.86,31.600
2.65,394.06,31.800
2.67,394.84,32.000
2.69,377.38,32.200
2.7,341.09,32.400
2.72,287.26,32.600
2.74,238.81,32.800
2.75,72.57,33.000

File: SSP_2022-12-08_B11_OPER.csv
Crossheadmm,LoadN,Timesec
0.0,2.04,0.000
0.06,2.61,0.200
0.13,2.87,0.400
0.2,3.41,0.600
0.26,3.85,0.800
0.33,4.17,1.000
0.4,4.51,1.200
0.46,4.87,1.400
0.53,5.35,1.600
0.6,5.68,1.800
0.67,6.32,2.000
0.73,6.78,2.200
0.8,7.28,2.400
0.86,7.81,2.600
0.93,8.39,2.800
1.0,8.98,3.000
1.07,9.65,3.200
1.13,10.35,3.400
1.2,10.8,3.600
1.27,11.07,3.800
1.33,11.82,4.000
1.4,12.7,4.200
1.47,13.75,4.400
1.53,14.57,4.600
1.6,15.7,4.800
1.67,16.78,5.000
1.73,17.93,5.200
1.8,19.21,5.400
1.87,20.18,5.600
1.93,21.19,5.800
2.0,22.53,6.000
2.07,24.09,6.200
2.13,25.37,6.400
2.2,26.78,6.600
2.27,28.5,6.800
2.33,29.98,7.000
2.4,31.45,7.200
2.47,33.0,7.400
2.53,34.83,7.600
2.6,33.65,7.800
2.67,35.37,8.000
2.73,37.08,8.200
2.8,38.85,8.400
2.87,39.65,8.600
2.93,40.9,8.800
3.0,40.33,9.000
3.07,41.37,9.200
3.13,42.32,9.400
3.2,41.68,9.600
3.27,42.36,9.800
3.33,42.3,10.000
3.4,42.01,10.200
3.47,42.45,10.400
3.53,43.59,10.600
3.6,44.83,10.800
3.67,45.9,11.000
3.73,46.49,11.200
3.8,44.92,11.400
3.87,45.9,11.600
3.93,45.82,11.800
4.0,46.19,12.000
4.06,46.98,12.200
4.13,47.9,12.400
4.2,49.29,12.600
4.26,50.04,12.800
4.33,50.38,13.000
4.4,50.95,13.200
4.46,51.01,13.400
4.53,49.91,13.600
4.6,50.6,13.800
4.67,51.61,14.000
4.73,51.23,14.200
4.8,51.2,14.400
4.86,51.4,14.600
4.93,51.81,14.800
5.0,52.33,15.000
5.07,53.06,15.200
5.13,54.33,15.400
5.2,54.4,15.600
5.26,55.06,15.800
5.33,56.19,16.000
5.4,57.8,16.200
5.47,59.56,16.400
5.53,61.19,16.600
5.6,62.58,16.800
5.66,63.25,17.000
5.73,64.48,17.200
5.8,66.22,17.400
5.87,68.08,17.600
5.93,70.05,17.800
6.0,71.8,18.000
6.07,74.06,18.200
6.13,76.46,18.400
6.2,78.48,18.600
6.27,80.63,18.800
6.33,82.31,19.000
6.4,83.61,19.200
6.47,82.95,19.400
6.53,83.09,19.600
6.6,83.47,19.800
6.67,82.13,20.000
6.73,82.09,20.200
6.8,79.74,20.400
6.87,80.04,20.600
6.93,81.31,20.800
7.0,83.04,21.000
7.07,83.74,21.200
7.13,84.73,21.400
7.2,84.46,21.600
7.27,84.56,21.800
7.33,85.3,22.000
7.4,86.53,22.200
7.47,86.99,22.400
7.53,88.01,22.600
7.6,88.01,22.800
7.67,89.29,23.000
7.73,87.45,23.200
7.8,88.27,23.400
7.87,88.91,23.600
7.93,88.91,23.800
8.0,88.65,24.000
8.06,88.57,24.200
8.13,88.85,24.400
8.2,89.19,24.600
8.27,89.12,24.800
8.33,89.19,25.000
8.4,88.96,25.200
8.46,86.76,25.400
8.53,86.28,25.600
8.6,86.71,25.800
8.67,87.57,26.000
8.73,87.93,26.200
8.8,87.73,26.400
8.86,88.04,26.600
8.93,87.46,26.800
9.0,87.88,27.000
9.06,88.62,27.200
9.13,89.35,27.400
9.2,89.1,27.600
9.26,89.82,27.800
9.33,90.68,28.000
9.4,91.37,28.200
9.46,92.35,28.400
9.53,93.24,28.600
9.6,94.68,28.800
9.66,94.54,29.000
9.73,94.99,29.200
9.8,95.66,29.400
9.86,96.73,29.600
9.93,97.85,29.800
10.0,98.54,30.000
10.06,97.73,30.200
10.13,96.76,30.400
10.2,96.42,30.600
10.26,95.55,30.800
10.33,93.49,31.000
10.4,92.95,31.200
10.46,93.12,31.400
10.53,89.4,31.600
10.6,87.92,31.800
10.67,87.66,32.000
10.73,88.07,32.200
10.8,88.84,32.400
10.87,89.46,32.600
10.93,90.41,32.800
11.0,90.95,33.000
11.07,91.46,33.200
11.13,91.94,33.400
11.2,92.16,33.600
11.27,89.94,33.800
11.33,88.57,34.000
11.4,87.91,34.200
11.47,85.65,34.400
11.53,84.13,34.600
11.6,80.86,34.800
11.67,74.91,35.000
11.73,71.84,35.200
11.8,69.99,35.400
11.87,68.59,35.600
11.93,67.09,35.800
12.0,66.17,36.000
12.07,64.93,36.200
12.13,64.43,36.400
12.2,63.93,36.600
12.27,64.04,36.800
12.33,63.8,37.000
12.4,63.7,37.200
12.47,63.52,37.400
12.53,63.46,37.600
12.6,63.28,37.800
12.67,62.95,38.000
12.73,62.74,38.200
12.8,62.32,38.400
12.87,61.8,38.600
12.93,61.28,38.800
13.0,60.71,39.000
13.07,59.58,39.200
13.13,58.8,39.400
13.2,58.42,39.600
13.26,58.08,39.800
13.33,56.94,40.000
13.4,56.37,40.200
13.46,55.91,40.400
13.53,55.48,40.600
13.6,54.84,40.800
13.66,54.42,41.000
13.73,53.89,41.200
13.8,52.91,41.400
13.86,51.46,41.600
13.93,50.35,41.800
14.0,49.54,42.000
14.06,49.26,42.200
14.13,49.37,42.400
14.2,49.21,42.600
14.26,48.9,42.800
14.33,48.35,43.000
14.4,47.75,43.200
14.46,47.31,43.400
14.53,47.26,43.600
14.6,47.2,43.800
14.66,47.18,44.000
14.73,47.25,44.200
14.8,47.2,44.400
14.86,47.31,44.600
14.93,34.54,44.800
15.0,32.11,45.000
15.07,31.26,45.200
15.13,30.68,45.400
15.2,30.19,45.600
15.26,29.81,45.800
15.33,29.71,46.000
15.4,29.42,46.200
15.47,29.48,46.400
15.53,29.27,46.600
15.6,29.04,46.800
15.67,28.84,47.000
15.73,28.92,47.200
15.8,28.82,47.400
15.87,28.53,47.600
15.93,28.43,47.800
16.0,28.36,48.000
16.07,28.31,48.200
16.13,27.6,48.400
16.2,26.95,48.600
16.27,26.69,48.800
16.33,25.6,49.000
16.4,24.07,49.200
16.47,23.25,49.400
16.53,22.71,49.600
16.6,22.3,49.800
16.66,21.92,50.000
16.73,21.41,50.200
16.8,20.87,50.400
16.86,19.73,50.600

File: SSP_2022-12-17_B6_NO.csv
Crossheadmm,LoadN,Timesec
0.0,0.0,0.000
0.01,1.0,0.100
0.03,1.0,0.200
0.06,1.0,0.300
0.08,1.0,0.400
0.1,1.0,0.500
0.13,1.0,0.600
0.16,1.0,0.700
0.19,1.0,0.800
0.22,1.0,0.900
0.25,2.0,1.000
0.28,2.0,1.100
0.32,2.0,1.200
0.35,2.0,1.300
0.38,2.0,1.400
0.41,3.0,1.500
0.45,4.0,1.600
0.48,4.0,1.700
0.51,4.0,1.800
0.55,4.0,1.900
0.58,5.0,2.000
0.61,5.0,2.100
0.65,5.0,2.200
0.68,6.0,2.300
0.71,7.0,2.400
0.75,7.0,2.500
0.78,7.0,2.600
0.81,7.0,2.700
0.85,8.0,2.800
0.88,9.0,2.900
0.91,9.0,3.000
0.95,10.0,3.100
0.98,11.0,3.200
1.01,12.0,3.300
1.05,13.0,3.400
1.08,14.0,3.500
1.11,15.0,3.600
1.15,17.0,3.700
1.18,19.0,3.800
1.21,21.0,3.900
1.25,23.0,4.000
1.28,26.0,4.100
1.31,30.0,4.200
1.35,33.0,4.300
1.38,37.0,4.400
1.41,41.0,4.500
1.45,45.0,4.600
1.48,48.0,4.700
1.51,52.0,4.800
1.55,56.0,4.900
1.58,60.0,5.000
1.61,65.0,5.100
1.65,70.0,5.200
1.68,75.0,5.300
1.71,80.0,5.400
1.75,86.0,5.500
1.78,90.0,5.600
1.81,97.0,5.700
1.85,102.0,5.800
1.88,109.0,5.900
1.91,116.0,6.000
1.95,123.0,6.100
1.98,130.0,6.200
2.01,137.0,6.300
2.05,145.0,6.400
2.08,152.0,6.500
2.11,160.0,6.600
2.15,167.0,6.700
2.18,176.0,6.800
2.21,183.0,6.900
2.25,191.0,7.000
2.28,199.0,7.100
2.31,207.0,7.200
2.35,216.0,7.300
2.38,225.0,7.400
2.41,235.0,7.500
2.45,244.0,7.600
2.48,254.0,7.700
2.51,263.0,7.800
2.55,273.0,7.900
2.58,283.0,8.000
2.61,292.0,8.100
2.65,302.0,8.200
2.68,312.0,8.300
2.71,322.0,8.400
2.75,331.0,8.500
2.78,343.0,8.600
2.81,352.0,8.700
2.85,361.0,8.800
2.88,372.0,8.900
2.91,382.0,9.000
2.95,391.0,9.100
2.98,401.0,9.200
3.01,412.0,9.300
3.05,421.0,9.400
3.08,431.0,9.500
3.11,442.0,9.600
3.15,451.0,9.700
3.18,461.0,9.800
3.21,470.0,9.900
3.25,480.0,10.000
3.28,489.0,10.100
3.31,498.0,10.200
3.35,508.0,10.300
3.38,517.0,10.400
3.41,526.0,10.500
3.45,536.0,10.600
3.48,545.0,10.700
3.51,553.0,10.800
3.54,554.0,10.900
3.58,553.0,11.000
3.61,560.0,11.100
3.65,567.0,11.200
3.68,572.0,11.300
3.71,577.0,11.400
3.74,586.0,11.500
3.78,589.0,11.600
3.81,590.0,11.700
3.84,591.0,11.800
3.88,586.0,11.900
3.91,587.0,12.000
3.95,590.0,12.100
3.98,591.0,12.200
4.01,590.0,12.300
4.04,591.0,12.400
4.08,594.0,12.500
4.11,490.0,12.600
4.14,428.0,12.700
4.18,410.0,12.800
4.21,401.0,12.900
4.24,403.0,13.000
4.28,405.0,13.100
4.31,407.0,13.200
4.35,407.0,13.300
4.38,401.0,13.400
4.41,400.0,13.500
4.44,401.0,13.600
4.48,402.0,13.700
4.51,405.0,13.800
4.54,404.0,13.900
4.58,400.0,14.000
4.61,398.0,14.100
4.64,396.0,14.200
4.68,385.0,14.300
4.71,381.0,14.400
4.74,336.0,14.500
4.78,312.0,14.600
4.81,290.0,14.700
4.84,257.0,14.800
4.88,247.0,14.900
4.91,240.0,15.000
4.95,231.0,15.100
4.98,229.0,15.200
5.01,226.0,15.300
5.04,223.0,15.400
5.08,222.0,15.500
5.11,221.0,15.600
5.14,206.0,15.700
5.18,178.0,15.800
5.21,171.0,15.900
5.24,169.0,16.000
5.28,165.0,16.100
5.31,161.0,16.200
5.34,142.0,16.300
5.38,133.0,16.400
5.41,123.0,16.500
5.44,122.0,16.600
5.48,119.0,16.700
5.51,114.0,16.800
5.54,102.0,16.900
5.58,94.0,17.000
5.61,90.0,17.100

File: SSP_2022-12-17_B7_OPER.csv
Crossheadmm,LoadN,Timesec
0.0,0.0,0.000
0.1,1.0,0.300
0.2,1.0,0.600
0.3,1.0,0.900
0.39,1.0,1.200
0.5,1.0,1.500
0.6,1.0,1.800
0.7,1.0,2.100
0.8,1.0,2.400
0.9,1.0,2.700
1.0,1.0,3.000
1.1,1.0,3.300
1.2,1.0,3.600
1.3,2.0,3.900
1.4,2.0,4.200
1.5,2.0,4.500
1.6,2.0,4.800
1.7,2.0,5.100
1.79,2.0,5.400
1.89,2.0,5.700
2.0,2.0,6.000
2.09,2.0,6.300
2.19,2.0,6.600
2.29,2.0,6.900
2.39,3.0,7.200
2.5,3.0,7.500
2.59,4.0,7.800
2.69,4.0,8.100
2.79,4.0,8.400
2.89,4.0,8.700
2.99,4.0,9.000
3.09,4.0,9.300
3.19,4.0,9.600
3.29,5.0,9.900
3.39,5.0,10.200
3.49,5.0,10.500
3.59,5.0,10.800
3.69,6.0,11.100
3.79,6.0,11.400
3.89,7.0,11.700
3.99,7.0,12.000
4.09,7.0,12.300
4.19,7.0,12.600
4.29,7.0,12.900
4.39,7.0,13.200
4.49,8.0,13.500
4.59,8.0,13.800
4.69,9.0,14.100
4.79,9.0,14.400
4.89,9.0,14.700
4.99,9.0,15.000
5.09,9.0,15.300
5.19,9.0,15.600
5.29,9.0,15.900
5.39,9.0,16.200
5.49,9.0,16.500
5.59,9.0,16.800
5.69,9.0,17.100
5.79,10.0,17.400
5.89,10.0,17.700
5.99,10.0,18.000
6.09,10.0,18.300
6.19,11.0,18.600
6.29,11.0,18.900
6.39,11.0,19.200
6.49,12.0,19.500
6.59,12.0,19.800
6.69,12.0,20.100
6.79,12.0,20.400
6.89,12.0,20.700
6.99,12.0,21.000
7.09,12.0,21.300
7.19,12.0,21.600
7.29,12.0,21.900
7.39,12.0,22.200
7.49,12.0,22.500
7.59,11.0,22.800
7.69,10.0,23.100
7.79,10.0,23.400
7.89,10.0,23.700
7.99,11.0,24.000
8.09,12.0,24.300
8.19,12.0,24.600
8.29,13.0,24.900
8.39,13.0,25.200
8.49,14.0,25.500
8.59,14.0,25.800
8.69,14.0,26.100
8.79,14.0,26.400
8.89,14.0,26.700
8.99,15.0,27.000
9.09,15.0,27.300
9.19,16.0,27.600
9.29,16.0,27.900
9.39,17.0,28.200
9.49,18.0,28.500
9.59,19.0,28.800
9.69,20.0,29.100
9.79,21.0,29.400
9.89,22.0,29.700
9.99,23.0,30.000
10.09,23.0,30.300
10.19,24.0,30.600
10.29,25.0,30.900
10.39,26.0,31.200
10.49,27.0,31.500
10.59,29.0,31.800
10.69,30.0,32.100
10.79,31.0,32.400
10.89,32.0,32.700
10.99,33.0,33.000
11.09,34.0,33.300
11.19,35.0,33.600
11.29,36.0,33.900
11.38,38.0,34.200
11.49,40.0,34.500
11.59,41.0,34.800
11.69,43.0,35.100
11.79,44.0,35.400
11.89,45.0,35.700
11.99,44.0,36.000
12.09,43.0,36.300
12.19,43.0,36.600
12.29,43.0,36.900
12.38,44.0,37.200
12.48,45.0,37.500
12.59,43.0,37.800
12.69,41.0,38.100
12.78,40.0,38.400
12.88,42.0,38.700
12.99,45.0,39.000
13.08,47.0,39.300
13.18,49.0,39.600
13.28,51.0,39.900
13.38,52.0,40.200
13.48,54.0,40.500
13.58,56.0,40.800
13.68,58.0,41.100
13.78,62.0,41.400
13.88,64.0,41.700
13.98,68.0,42.000
14.08,71.0,42.300
14.18,73.0,42.600
14.28,76.0,42.900
14.38,79.0,43.200
14.48,83.0,43.500
14.58,86.0,43.800
14.68,89.0,44.100
14.78,91.0,44.400
14.88,94.0,44.700
14.98,97.0,45.000
15.08,99.0,45.300
15.18,101.0,45.600
15.28,102.0,45.900
15.38,103.0,46.200
15.48,104.0,46.500
15.58,104.0,46.800
15.68,102.0,47.100
15.78,101.0,47.400
15.88,99.0,47.700
15.98,100.0,48.000
16.08,101.0,48.300
16.18,103.0,48.600
16.28,105.0,48.900
16.38,105.0,49.200
16.48,105.0,49.500
16.58,105.0,49.800
16.68,107.0,50.100
16.78,109.0,50.400
16.88,112.0,50.700
16.98,105.0,51.000
17.08,98.0,51.300
17.18,89.0,51.600
17.28,91.0,51.900
17.38,93.0,52.200
17.48,95.0,52.500
17.58,97.0,52.800
17.68,98.0,53.100
17.78,101.0,53.400
17.88,103.0,53.700
17.98,105.0,54.000
18.08,107.0,54.300
18.18,109.0,54.600
18.28,112.0,54.900
18.38,115.0,55.200
18.48,116.0,55.500
18.58,117.0,55.800
18.68,119.0,56.100
18.78,119.0,56.400
18.88,120.0,56.700
18.98,120.0,57.000
19.08,45.0,57.300
19.18,44.0,57.600
19.28,44.0,57.900
19.37,44.0,58.200
19.48,43.0,58.500
19.58,42.0,58.800
19.68,41.0,59.100
19.78,41.0,59.400
19.88,41.0,59.700
19.98,41.0,60.000
20.07,41.0,60.300
20.18,41.0,60.600
20.28,40.0,60.900
20.38,38.0,61.200
20.48,38.0,61.500
20.58,38.0,61.800
20.68,38.0,62.100
20.78,38.0,62.400
20.88,37.0,62.700
20.98,36.0,63.000
21.08,35.0,63.300
21.17,34.0,63.600
21.28,34.0,63.900
21.38,34.0,64.200
21.47,34.0,64.500
21.58,33.0,64.800
21.68,32.0,65.100
21.77,32.0,65.400
21.87,31.0,65.700
21.98,31.0,66.000
22.08,30.0,66.300
22.18,29.0,66.600
22.28,27.0,66.900
22.38,27.0,67.200
22.47,26.0,67.500
22.58,26.0,67.800
22.68,26.0,68.100
22.78,25.0,68.400
22.87,25.0,68.700
22.97,24.0,69.000
23.07,24.0,69.300
23.11,24.0,69.400