Folder: SSPProjectEK/Data/Selected_data (part 4)

File: SSP_2025-03-19_D7_OPER.csv
Crossheadmm,LoadN,Timesec
0.0346,0.349895,0.115
0.1682,0.690635,0.515
0.3013,0.89686,0.915
0.4348,1.01148,1.315
0.5677,1.21265,1.715
0.7014,1.56185,2.115
0.8345,2.04091,2.515
0.968,2.42068,2.915
1.1012,3.08528,3.315
1.2347,3.74095,3.715
1.3679,4.5114,4.115
1.5012,5.26801,4.515
1.6343,6.3745,4.915
1.768,7.48691,5.315
1.9015,8.84728,5.715
2.0342,10.5807,6.115
2.1678,12.0151,6.515
2.3013,14.1498,6.915
2.4346,16.131,7.315
2.568,18.273,7.715
2.7012,20.601,8.115
2.8347,22.7675,8.515
2.9678,25.045,8.915
3.1016,26.9035,9.315
3.2347,28.8599,9.715
3.3682,31.3012,10.115
3.5014,32.2718,10.515
3.6349,33.6087,10.915
3.7681,35.8122,11.315
3.9014,35.1425,11.715
4.0346,37.001,12.115
4.1683,38.3832,12.515
4.3019,40.4848,12.915
4.4346,42.5991,13.315
4.5681,45.0002,13.715
4.7015,45.3516,14.115
4.8348,48.3243,14.515
4.9683,50.6964,14.915
5.1013,50.5603,15.315
5.2349,53.0097,15.715
5.3677,54.9808,16.115
5.5015,56.6437,16.515
5.6345,55.1146,16.915
5.7679,57.9478,17.315
5.9011,60.8334,17.715
6.0346,65.5234,18.115
6.1678,67.4601,18.515
6.301,70.5911,18.915
6.4343,73.8501,19.315
6.5679,73.6401,19.715
6.7016,63.33,20.115
6.8345,58.2674,20.515
6.9678,62.9252,20.915
7.1013,66.2125,21.315
7.2345,70.643,21.715
7.3681,74.876,22.115
7.5011,79.0862,22.515
7.6347,83.9151,22.915
7.7678,88.9844,23.315
7.9015,93.925,23.715
8.0346,96.5764,24.115
8.1681,101.166,24.515
8.3014,106.197,24.915
8.4349,110.733,25.315
8.5681,113.94,25.715
8.7013,111.126,26.115
8.8347,93.5338,26.515
8.9683,92.0319,26.915
9.1019,79.6434,27.315
9.2347,68.7391,27.715
9.3681,62.1063,28.115
9.5015,61.4313,28.515
9.6348,61.7179,28.915
9.7683,55.4325,29.315
9.9012,52.6228,29.715
10.0347,45.0294,30.115
10.1678,42.8121,30.515
10.3014,42.4425,30.915
10.4344,42.9195,31.315
10.5679,43.5069,31.715
10.7011,44.7293,32.115
10.8346,45.8045,32.515
10.9679,47.1065,32.915
11.1011,48.0061,33.315
11.2344,48.6894,33.715
11.3681,49.0339,34.115
11.5016,49.2883,34.515
11.6345,50.0521,34.915
11.7678,50.6566,35.315
11.9013,50.0521,35.715
12.0347,38.2572,36.115
12.1682,39.0256,36.515
12.3012,40.0785,36.915
12.4348,40.9014,37.315
12.568,41.9876,37.715
12.7017,43.7175,38.115
12.8348,44.8259,38.515
12.9681,44.754,38.915
13.1015,45.642,39.315
13.235,46.4081,39.715
13.3682,45.4336,40.115
13.5014,45.9449,40.515
13.6347,46.7251,40.915
13.7684,47.394,41.315
13.9019,47.8246,41.715
14.0348,48.0258,42.115
14.168,47.1806,42.515
14.3014,47.0518,42.915
14.4347,43.0216,43.315
14.5683,38.9751,43.715
14.7011,35.2499,44.115
14.8346,33.9928,44.515
14.9677,34.4174,44.915
15.1014,34.6806,45.315
15.2345,34.8228,45.715
15.3678,34.648,46.115
15.5012,33.5976,46.515
15.6347,32.9949,46.915
15.7679,32.6099,47.315
15.9012,32.5438,47.715
16.0344,32.6631,48.115
16.168,31.6979,48.515
16.3015,31.3717,48.915
16.4345,31.3065,49.315
16.5678,30.9053,49.715
16.7012,30.7956,50.115
16.8346,30.5207,50.515
16.9681,30.3776,50.915
17.101,30.1374,51.315
17.2347,30.0625,51.715
17.3679,29.8325,52.115
17.5016,29.4185,52.515
17.6348,28.9146,52.915
17.768,28.5648,53.315
17.9015,28.3625,53.715
18.0349,28.226,54.115
18.1683,28.124,54.515
18.3014,27.8404,54.915
18.4348,27.1619,55.315
18.5682,26.3529,55.715
18.7019,25.7093,56.115
18.8347,25.2585,56.515
18.968,24.7882,56.915
19.1014,24.5698,57.315
19.2348,24.6694,57.715
19.3682,24.0484,58.115
19.5011,23.929,58.515
19.6347,23.0573,58.915
19.7679,22.5293,59.315
19.9014,21.5225,59.715
20.0345,20.9641,60.115
20.1677,20.6264,60.515
20.3012,20.4761,60.915
20.4346,19.3521,61.315
20.5678,19.0654,61.715
20.7011,18.813,62.115
20.8345,18.8083,62.515
20.9679,18.589,62.915
21.1016,18.4691,63.315
21.2345,18.1426,63.715
21.3679,17.9084,64.115
21.5013,17.8329,64.515
21.6347,17.7383,64.915
21.7681,17.8543,65.315
21.9013,18.0914,65.715
22.0348,18.1069,66.115
22.1682,18.3462,66.515
22.3016,18.5812,66.915
22.4349,18.7446,67.315
22.5679,18.8727,67.715
22.7016,19.2528,68.115
22.8348,19.2024,68.515
22.9682,19.3617,68.915
23.1014,19.2992,69.315
23.2348,19.4253,69.715
23.3681,19.5596,70.115
23.5019,19.5896,70.515
23.6347,19.5605,70.915
23.7681,19.8855,71.315
23.9013,19.6792,71.715
24.0347,19.5338,72.115
24.168,19.5573,72.515
24.3012,19.3447,72.915
24.4344,19.2743,73.315
24.5679,19.1443,73.715
24.7012,19.2631,74.115
24.8345,19.193,74.515
24.9675,19.1585,74.915
25.1013,19.1411,75.315
25.2345,19.3441,75.715
25.3679,18.9667,76.115
25.5012,18.6438,76.515
25.6346,18.7004,76.915
25.7679,18.8129,77.315
25.9017,18.8084,77.715
26.0346,18.6171,78.115
26.168,18.0692,78.515
26.3013,17.4731,78.915
26.4348,16.9584,79.315
26.5681,16.1824,79.715
26.7014,15.8242,80.115
26.8346,15.5127,80.515
26.9682,14.7566,80.915
27.1016,13.9108,81.315
27.2349,12.7793,81.715
27.3679,11.7076,82.115
27.5016,11.4555,82.515
27.6348,11.1211,82.915
27.7682,10.9653,83.315
27.9015,10.8031,83.715
28.0349,10.475,84.115
28.1681,10.3138,84.515
28.3018,10.2742,84.915
28.4347,10.1222,85.315
28.568,10.3022,85.715
28.7013,10.2175,86.115
28.8347,10.1594,86.515
28.9679,10.0383,86.915
29.1011,6.80884,87.315
29.2343,6.26793,87.715
29.3678,6.01676,88.115
29.5012,5.88116,88.515
29.6345,5.7997,88.915
29.7676,5.60446,89.315
29.9013,5.43956,89.715
30.0346,5.27466,90.115
30.1681,5.19586,90.515
30.3014,5.22535,90.915
30.4348,5.01495,91.315
30.5681,4.68617,91.715
30.7016,4.39155,92.115
30.8347,4.33943,92.515
30.968,4.05781,92.915
31.1013,4.07233,93.315
31.2347,4.10242,93.715
31.3681,4.03644,94.115
31.5014,3.88014,94.515
31.6347,3.53315,94.915
31.7683,3.54062,95.315
31.9017,3.37612,95.715
32.035,3.31501,96.115
32.168,3.19841,96.515
32.3016,3.37729,96.915
32.4349,2.90683,97.315
32.5683,2.74867,97.715
32.7015,2.70987,98.115
32.8348,2.6193,98.515
32.9681,2.36107,98.915
33.1015,2.33356,99.315
33.2346,2.43581,99.715
33.3679,1.99257,100.115
33.5013,1.89454,100.515
33.6345,1.79268,100.915
33.7678,1.76198,101.315
33.9012,1.61727,101.715
34.0344,1.53305,102.115
34.1678,1.39959,102.515
34.3012,1.52417,102.915
34.4346,1.40583,103.315
34.5677,1.44319,103.715
34.7012,1.3426,104.115
34.8346,1.17298,104.515
34.968,1.3608,104.915
35.1015,1.34242,105.315
35.2347,1.29545,105.715
35.3681,1.18063,106.115
35.5012,1.09274,106.515
35.6348,1.25472,106.915
35.7347,1.27984,107.215

File: SSP_2025-03-19_D11_NO.csv
Crossheadmm,LoadN,Timesec
0.034,18.7105,0.114
0.0673,20.6103,0.214
0.1009,22.7632,0.314
0.1343,24.7229,0.414
0.1675,26.8553,0.514
0.2006,29.0876,0.614
0.234,31.2821,0.714
0.2675,33.4347,0.814
0.3009,35.9537,0.914
0.3343,38.3091,1.014
0.3675,40.9049,1.114
0.4008,43.6043,1.214
0.434,46.3351,1.314
0.4671,49.3537,1.414
0.5007,52.3324,1.514
0.5342,55.5897,1.614
0.5675,58.7639,1.714
0.6009,62.0093,1.814
0.6341,65.4469,1.914
0.6674,68.9096,2.014
0.7006,72.5546,2.114
0.734,76.5339,2.214
0.7674,80.5324,2.314
0.8008,84.3227,2.414
0.8342,88.428,2.514
0.8677,92.5866,2.614
0.901,96.9125,2.714
0.9342,101.388,2.814
0.9674,105.198,2.914
1.0008,109.673,3.014
1.0342,114.194,3.114
1.0676,118.81,3.214
1.101,123.487,3.314
1.1342,128.043,3.414
1.1676,132.407,3.514
1.201,137.351,3.614
1.2341,141.912,3.714
1.2673,146.232,3.814
1.3007,151.034,3.914
1.3342,155.498,4.014
1.3675,160.171,4.114
1.4009,164.696,4.214
1.4343,168.953,4.314
1.4676,172.98,4.414
1.5008,176.509,4.514
1.534,177.29,4.614
1.5673,180.017,4.714
1.6007,183.857,4.814
1.634,188.014,4.914
1.6675,192.689,5.014
1.7011,196.997,5.114
1.7342,200.597,5.214
1.7673,203.941,5.314
1.8006,208.116,5.414
1.8339,212.664,5.514
1.8675,217.421,5.614
1.9008,222.075,5.714
1.9342,226.283,5.814
1.9676,231.137,5.914
2.0009,235.783,6.014
2.0341,240.052,6.114
2.0673,244.404,6.214
2.1004,248.872,6.314
2.1339,252.691,6.414
2.1674,257.255,6.514
2.2008,261.844,6.614
2.2345,265.308,6.714
2.2678,269.6,6.814
2.3007,274.216,6.914
2.3337,277.978,7.014
2.3672,282.197,7.114
2.4007,286.699,7.214
2.434,290.983,7.314
2.4674,295.295,7.414
2.5009,299.407,7.514
2.5342,302.828,7.614
2.5674,306.2,7.714
2.6006,308.108,7.814
2.6339,311.615,7.914
2.6674,315.577,8.014
2.7008,319.403,8.114
2.7342,322.323,8.214
2.7675,317.316,8.314
2.8008,307.65,8.414
2.8339,285.158,8.514
2.867,284.099,8.614
2.9005,286.04,8.714
2.9341,287.332,8.814
2.9675,130.786,8.914
3.0009,113.281,9.014
3.0342,96.8078,9.114
3.0675,28.1261,9.214
3.1007,25.4647,9.314
3.1341,24.5795,9.414
3.1673,24.5543,9.514
3.2009,24.1837,9.614
3.2343,22.615,9.714
3.2678,21.7575,9.814
3.301,21.0507,9.914
3.3342,20.2935,10.014
3.3674,20.1185,10.114
3.4007,19.6544,10.214
3.4341,19.7448,10.314
3.4675,19.5267,10.414
3.5009,19.7294,10.514
3.5341,19.5856,10.614
3.5676,19.6281,10.714
3.6009,19.5547,10.814
3.6341,19.668,10.914
3.6674,19.6146,11.014
3.7006,19.5859,11.114
3.7341,19.2869,11.214
3.7676,18.786,11.314
3.801,18.654,11.414
3.8343,18.6831,11.514
3.8675,18.5698,11.614
3.9008,18.698,11.714
3.934,18.8215,11.814
3.9673,18.7482,11.914
4.0007,18.7564,12.014
4.034,18.7813,12.114
4.0675,18.9208,12.214
4.1011,18.9175,12.314
4.1342,18.9489,12.414
4.1672,19.0296,12.514
4.2005,19.1274,12.614
4.234,19.0087,12.714
4.2676,19.1606,12.814
4.3009,19.1961,12.914
4.3343,19.4245,13.014
4.3678,18.8151,13.114
4.4011,18.9283,13.214
4.4342,18.8822,13.314
4.4675,19.1043,13.414
4.5007,19.286,13.514
4.5342,19.4879,13.614
4.5677,19.5711,13.714
4.6012,19.7235,13.814
4.6348,19.9169,13.914
4.6681,20.1721,14.014
4.7008,20.3588,14.114
4.734,20.4825,14.214
4.7674,20.4769,14.314
4.8009,20.6137,14.414
4.8343,20.8392,14.514
4.8678,21.0582,14.614
4.9013,21.2259,14.714
4.9346,21.4568,14.814
4.9677,21.6206,14.914
5.001,21.3546,15.014
5.0343,21.4062,15.114
5.0678,21.8309,15.214
5.1013,21.6031,15.314
5.1347,21.7603,15.414
5.168,21.955,15.514
5.2012,22.0614,15.614
5.2343,22.1849,15.714
5.2675,22.4091,15.814
5.301,22.432,15.914
5.3345,22.6544,16.014
5.3679,22.785,16.114
5.4012,23.0527,16.214
5.4345,23.3705,16.314
5.4676,23.4524,16.414
5.501,23.7689,16.514
5.5344,23.7562,16.614
5.5676,24.0141,16.714
5.601,24.036,16.814
5.6346,23.5887,16.914
5.668,22.2891,17.014
5.7013,21.2409,17.114
5.7344,21.2788,17.214
5.7677,21.3443,17.314
5.801,21.583,17.414
5.8343,21.6992,17.514
5.8677,20.3232,17.614
5.9011,20.2424,17.714
5.9344,20.6403,17.814
5.9679,20.7871,17.914
6.0012,20.9735,18.014
6.0344,21.2048,18.114
6.0676,21.4994,18.214
6.1009,21.8306,18.314
6.1343,21.9992,18.414
6.1679,22.2513,18.514
6.2013,22.379,18.614
6.2346,22.5316,18.714
6.2678,22.5215,18.814
6.3011,22.8233,18.914
6.3344,23.0171,19.014
6.3677,23.3168,19.114
6.401,23.5359,19.214
6.4344,23.8063,19.314
6.4679,23.9522,19.414
6.5014,24.28,19.514
6.5345,24.4999,19.614
6.5675,24.8694,19.714
6.6009,25.1441,19.814
6.6342,25.6625,19.914
6.6678,25.8548,20.014
6.7012,25.9784,20.114
6.7345,26.3021,20.214
6.768,26.7407,20.314
6.8013,26.9133,20.414
6.8344,27.1189,20.514
6.8676,27.504,20.614
6.9008,27.4958,20.714
6.9343,27.7167,20.814
6.9679,28.0177,20.914
7.0013,28.3061,21.014
7.035,28.5199,21.114
7.0681,28.7565,21.214
7.1008,29.0322,21.314
7.1339,29.2109,21.414
7.1674,29.1551,21.514
7.2008,29.3041,21.614
7.2343,29.4659,21.714
7.2677,29.7708,21.814
7.3011,29.9187,21.914
7.3343,30.1199,22.014
7.3676,30.3821,22.114
7.4007,30.6767,22.214
7.4341,30.9657,22.314
7.4675,31.1669,22.414
7.5012,31.617,22.514
7.5345,31.752,22.614
7.5678,32.1246,22.714
7.6009,32.3613,22.814
7.6341,32.6226,22.914
7.6673,32.8857,23.014
7.7007,33.2443,23.114
7.7341,33.4002,23.214
7.7675,33.7998,23.314
7.8008,34.1288,23.414
7.8341,34.4288,23.514
7.8672,34.7315,23.614
7.9006,35.1211,23.714
7.934,34.5133,23.814
7.9672,34.5259,23.914
8.0007,34.8865,24.014
8.0343,34.5484,24.114
8.0676,34.5337,24.214
8.1008,34.1851,24.314
8.134,33.8368,24.414
8.1673,33.9833,24.514
8.2006,34.0241,24.614
8.2338,34.328,24.714
8.2673,34.6411,24.814
8.3006,34.8736,24.914
8.3339,35.2341,25.014
8.3675,35.404,25.114
8.4008,35.3752,25.214
8.434,35.6836,25.314
8.4673,35.9912,25.414
8.5005,36.0919,25.514
8.534,36.1783,25.614
8.5676,36.4309,25.714
8.601,36.5435,25.814
8.6343,36.497,25.914
8.6675,36.8694,26.014
8.7008,37.2135,26.114
8.7341,37.4462,26.214
8.7674,37.5793,26.314
8.8007,38.0215,26.414
8.8341,38.4012,26.514
8.8677,38.595,26.614
8.9012,38.9393,26.714
8.9342,38.9623,26.814
8.9674,39.1619,26.914
9.0008,39.2476,27.014

File: SSP_2025-03-20_D6_NO.csv
Crossheadmm,LoadN,Timesec
0.0344,2.04476,0.114
0.0676,1.88337,0.214
0.1011,4.90817,0.314
0.1343,7.70512,0.414
0.1677,10.2863,0.514
0.2011,12.7808,0.614
0.2344,15.174,0.714
0.2677,17.5132,0.814
0.3011,19.628,0.914
0.3344,21.7524,1.014
0.3677,23.8653,1.114
0.401,25.9094,1.214
0.4343,27.6551,1.314
0.4676,29.6185,1.414
0.501,31.1516,1.514
0.5343,32.7765,1.614
0.5676,34.7897,1.714
0.601,36.7215,1.814
0.6342,38.6278,1.914
0.6675,40.5153,2.014
0.7009,42.6378,2.114
0.7343,44.602,2.214
0.7675,46.9404,2.314
0.8007,49.7137,2.414
0.8341,52.6778,2.514
0.8673,55.7181,2.614
0.9008,59.011,2.714
0.9342,62.1743,2.814
0.9674,65.5562,2.914
1.0008,69.1257,3.014
1.0339,72.6786,3.114
1.0671,76.3325,3.214
1.1005,80.5629,3.314
1.1343,85.0608,3.414
1.1676,89.3592,3.514
1.2005,92.6118,3.614
1.2338,95.804,3.714
1.2674,100.783,3.814
1.3007,104.632,3.914
1.3339,107.367,4.014
1.3672,112.32,4.114
1.4007,115.835,4.214
1.434,119.44,4.314
1.4673,121.953,4.414
1.5006,124.087,4.514
1.5338,125.499,4.614
1.5672,125.549,4.714
1.6006,133.771,4.814
1.6339,144.283,4.914
1.6675,153.91,5.014
1.7009,163.681,5.114
1.7342,173.372,5.214
1.7673,182.648,5.314
1.8006,192.197,5.414
1.834,201.907,5.514
1.8673,211.552,5.614
1.9005,221.411,5.714
1.934,231.372,5.814
1.9674,241.205,5.914
2.0006,250.721,6.014
2.0339,259.861,6.114
2.0673,269.037,6.214
2.1009,277.852,6.314
2.1341,285.801,6.414
2.1672,293.467,6.514
2.2007,301.364,6.614
2.2342,308.835,6.714
2.2675,316.176,6.814
2.3009,323.275,6.914
2.3343,330.393,7.014
2.3678,337.083,7.114
2.4009,343.631,7.214
2.4341,349.941,7.314
2.4675,356.561,7.414
2.5008,362.999,7.514
2.5341,369.704,7.614
2.5675,376.886,7.714
2.6009,383.496,7.814
2.6342,390.401,7.914
2.6675,397.323,8.014
2.7007,404.317,8.114
2.7341,411.603,8.214
2.7673,418.826,8.314
2.8008,426.203,8.414
2.8341,433.168,8.514
2.8675,440.174,8.614
2.9009,447.435,8.714
2.9341,454.211,8.814
2.9674,461.038,8.914
3.0008,468.092,9.014
3.0341,474.691,9.114
3.0674,481.453,9.214
3.1008,488.514,9.314
3.1342,495.189,9.414
3.1674,501.795,9.514
3.2006,508.182,9.614
3.2339,514.676,9.714
3.2672,521.223,9.814
3.3006,527.685,9.914
3.3341,534.048,10.014
3.3674,540.446,10.114
3.4007,546.396,10.214
3.4339,552.505,10.314
3.467,558.416,10.414
3.5003,564.786,10.514
3.5341,571.087,10.614
3.5673,576.764,10.714
3.6002,581.972,10.814
3.6336,587.658,10.914
3.6671,593.383,11.014
3.7005,599.021,11.114
3.7337,604.485,11.214
3.7668,609.995,11.314
3.8003,615.821,11.414
3.8337,621.491,11.514
3.867,626.911,11.614
3.9003,632.346,11.714
3.9335,637.309,11.814
3.9669,642.531,11.914
4.0002,647.502,12.014
4.0335,652.322,12.114
4.067,657.875,12.214
4.1004,663.033,12.314
4.1337,668.266,12.414
4.1669,673.1,12.514
4.2001,677.935,12.614
4.2336,682.951,12.714
4.2668,688.137,12.814
4.3,693.171,12.914
4.3334,698.038,13.014
4.3668,702.562,13.114
4.4001,707.019,13.214
4.4333,710.483,13.314
4.4671,703.434,13.414
4.5012,5.76191,13.514
4.5342,6.02361,13.614
4.5673,6.69533,13.714
4.6009,6.80954,13.814
4.6343,7.06466,13.914
4.6677,7.47211,14.014
4.701,7.9438,14.114
4.7343,8.02085,14.214
4.7677,8.2752,14.314
4.8009,8.58131,14.414
4.8341,8.67933,14.514
4.8676,8.47724,14.614
4.9007,8.50163,14.714
4.9341,8.89488,14.814
4.9675,8.57084,14.914
5.0009,8.80565,15.014

File: SSP_2025-03-20_D7_NO.csv
Crossheadmm,LoadN,Timesec
0.0897,5.74163,0.301
0.1565,7.3886,0.501
0.2233,9.29924,0.701
0.2899,11.1427,0.901
0.3564,13.6221,1.101
0.4233,15.8474,1.301
0.4901,18.1711,1.501
0.5565,21.1748,1.701
0.623,24.4914,1.901
0.6896,27.8021,2.101
0.7567,31.6284,2.301
0.8229,35.5149,2.501
0.8895,39.7129,2.701
0.9564,43.9839,2.901
1.0232,47.9387,3.101
1.0898,52.2483,3.301
1.156,56.5955,3.501
1.223,61.3006,3.701
1.2898,65.9411,3.901
1.3563,70.0005,4.101
1.4228,71.944,4.301
1.4896,75.1486,4.501
1.5565,80.6643,4.701
1.6229,85.115,4.901
1.6894,91.0838,5.101
1.7563,97.6266,5.301
1.823,104.32,5.501
1.8894,111.79,5.701
1.956,119.59,5.901
2.0228,127.392,6.101
2.0895,134.671,6.301
2.1563,142.965,6.501
2.2229,151.115,6.701
2.2893,159.233,6.901
2.3565,167.763,7.101
2.4227,176.039,7.301
2.4894,184.112,7.501
2.5561,192.175,7.701
2.623,199.971,7.901
2.6896,207.812,8.101
2.7562,215.807,8.301
2.8231,223.267,8.501
2.8899,226.744,8.701
2.9564,233.279,8.901
3.0229,239.966,9.101
3.0895,246.232,9.301
3.1567,252.752,9.501
3.223,250.855,9.701
3.2897,244.812,9.901
3.3565,247.825,10.101
3.4234,252.999,10.301
3.4899,255.404,10.501
3.5563,251.09,10.701
3.6232,249.931,10.901
3.6901,233.119,11.101
3.7565,218.6,11.301
3.8232,176.985,11.501
3.8898,154.641,11.701
3.9568,154.677,11.901
4.0233,157.674,12.101
4.0898,158.258,12.301
4.1566,154.303,12.501
4.2234,149.908,12.701
4.2897,117.497,12.901
4.3565,98.8282,13.101
4.4232,101.026,13.301
4.4899,100.335,13.501
4.5567,101.696,13.701
4.6231,104.372,13.901
4.6895,107.079,14.101
4.7567,109.127,14.301
4.8229,106.835,14.501
4.8895,106.404,14.701
4.9561,108.104,14.901
5.0231,110.373,15.101
5.0897,107.046,15.301
5.1562,99.7691,15.501
5.223,101.385,15.701
5.2897,102.864,15.901
5.3562,102.205,16.101
5.4227,102.933,16.301
5.4894,104.353,16.501
5.5565,100.273,16.701
5.6228,85.284,16.901
5.6894,86.2399,17.101
5.7563,87.2541,17.301
5.8231,88.1326,17.501
5.8896,85.3304,17.701
5.956,29.8507,17.901
6.0229,28.7115,18.101
6.0898,28.4455,18.301
6.1563,28.8742,18.501
6.2228,29.2951,18.701
6.2895,29.5719,18.901
6.3565,30.147,19.101
6.423,30.5058,19.301
6.4894,31.0022,19.501
6.5563,31.3725,19.701
6.623,31.8134,19.901
6.6895,32.2463,20.101
6.7563,32.7123,20.301
6.823,32.9834,20.501
6.8898,33.2994,20.701
6.9568,33.4583,20.901
7.0229,34.0516,21.101
7.0896,33.7998,21.301
7.1568,34.0608,21.501
7.2231,33.8505,21.701
7.2898,33.2741,21.901
7.3564,32.4484,22.101
7.4234,31.6408,22.301
7.4901,31.2059,22.501
7.5566,31.2206,22.701
7.6233,31.2526,22.901
7.6901,31.2239,23.101
7.7567,31.4935,23.301
7.8232,31.7672,23.501
7.8898,31.8729,23.701
7.957,32.0365,23.901
8.0233,31.5174,24.101
8.0899,31.7413,24.301
8.1567,31.3696,24.501
8.2236,31.5576,24.701
8.2901,31.4942,24.901
8.3565,31.426,25.101
8.4233,30.887,25.301
8.4902,31.0144,25.501
8.5567,31.0276,25.701
8.6232,30.9719,25.901
8.6897,30.8881,26.101
8.7568,30.8231,26.301
8.8232,30.8496,26.501
8.8897,30.6166,26.701
8.9565,30.7242,26.901
9.0232,29.6331,27.101
9.0896,29.108,27.301
9.1564,28.9762,27.501
9.2229,28.8022,27.701
9.2897,28.6589,27.901
9.3567,28.4459,28.101
9.4226,28.114,28.301
9.4894,28.0662,28.501
9.5565,28.0095,28.701
9.6229,28.1021,28.901
9.6895,27.6561,29.101
9.7561,27.6399,29.301
9.8231,27.5338,29.501
9.8897,27.2777,29.701
9.9562,27.1269,29.901
10.0229,26.9206,30.101
10.0897,26.5501,30.301
10.1563,26.5617,30.501
10.2228,26.1932,30.701
10.2894,25.9187,30.901
10.3564,25.6359,31.101
10.4229,25.5986,31.301

File: SSP_2025-03-20_D8_OPER.csv
Crossheadmm,LoadN,Timesec
0.0341,0.545077,0.113
0.1676,0.924756,0.513
0.3009,1.01759,0.913
0.4343,1.14575,1.313
0.5679,1.16018,1.713
0.701,1.26637,2.113
0.8345,1.56822,2.513
0.9676,1.54785,2.913
1.1012,1.64154,3.313
1.2345,2.01822,3.713
1.3679,1.9999,4.113
1.5012,2.19768,4.513
1.6347,2.2689,4.913
1.7678,2.63483,5.313
1.9012,2.98025,5.713
2.0344,3.06294,6.113
2.1678,3.433,6.513
2.301,3.75564,6.913
2.4343,4.16975,7.313
2.5677,4.2072,7.713
2.7009,4.89642,8.113
2.8343,5.1937,8.513
2.9677,5.50958,8.913
3.1008,5.90131,9.313
3.2342,6.5189,9.713
3.3674,6.97766,10.113
3.5009,7.73801,10.513
3.6342,8.22745,10.913
3.7675,9.12536,11.313
3.901,9.804,11.713
4.0345,10.6441,12.113
4.1677,11.7673,12.513
4.3011,13.0236,12.913
4.4345,14.1672,13.313
4.5678,15.5504,13.713
4.7011,17.1081,14.113
4.8344,18.9004,14.513
4.9678,20.723,14.913
5.1011,22.6609,15.313
5.2345,25.078,15.713
5.368,27.2247,16.113
5.5011,29.7656,16.513
5.6345,32.0925,16.913
5.7676,34.6104,17.313
5.9012,37.3821,17.713
6.0344,39.8939,18.113
6.1678,42.517,18.513
6.3013,45.6632,18.913
6.4346,48.3213,19.313
6.5678,49.7943,19.713
6.701,51.9475,20.113
6.8345,54.4921,20.513
6.9677,57.4349,20.913
7.1011,60.6114,21.313
7.2342,63.6389,21.713
7.3676,65.1701,22.113
7.5009,68.1338,22.513
7.6341,71.55,22.913
7.7676,74.4497,23.313
7.9007,68.472,23.713
8.0342,70.5751,24.113
8.1674,73.562,24.513
8.3009,77.1751,24.913
8.4342,79.7932,25.313
8.5676,80.3679,25.713
8.7011,82.7215,26.113
8.8344,85.5447,26.513
8.9678,89.2298,26.913
9.1008,93.3601,27.313
9.2344,96.8899,27.713
9.3676,100.834,28.113
9.5011,103.55,28.513
9.6343,107.025,28.913
9.7677,109.579,29.313
9.9011,112.124,29.713
10.0344,114.839,30.113
10.1679,114.647,30.513
10.3011,117.546,30.913
10.4345,119.945,31.313
10.5677,122.199,31.713
10.7011,124.53,32.113
10.8344,125.905,32.513
10.9677,126.762,32.913
11.1013,128.431,33.313
11.2345,120.568,33.713
11.3679,118.195,34.113
11.5009,118.546,34.513
11.6344,120.21,34.913
11.7677,120.951,35.313
11.901,120.874,35.713
12.0341,121.598,36.113
12.1675,121.409,36.513
12.3007,122.153,36.913
12.434,122.588,37.313
12.5675,122.492,37.713
12.7007,120.428,38.113
12.8342,120.848,38.513
12.9675,121.4,38.913
13.1009,121.732,39.313
13.2342,120.109,39.713
13.3675,118.13,40.113
13.5011,111.946,40.513
13.6343,110.707,40.913
13.7678,110.025,41.313
13.9008,109.406,41.713
14.0345,106.209,42.113
14.1677,105.928,42.513
14.3013,103.809,42.913
14.4344,101.395,43.313
14.5679,101.102,43.713
14.7011,101.752,44.113
14.8345,102.379,44.513
14.9678,102.561,44.913
15.1011,102.934,45.313
15.2344,102.074,45.713
15.3678,100.823,46.113
15.5011,100.061,46.513
15.6345,97.9808,46.913
15.7676,93.6618,47.313
15.9013,90.0818,47.713
16.0342,87.0798,48.113
16.1678,85.8726,48.513
16.3006,85.7512,48.913
16.4343,86.4494,49.313
16.5675,87.4419,49.713
16.701,88.1782,50.113
16.8341,86.9449,50.513
16.9675,85.2893,50.913
17.1008,83.7484,51.313
17.2341,80.6482,51.713
17.3675,79.3197,52.113
17.5007,77.8964,52.513
17.6341,77.043,52.913
17.7676,75.6444,53.313
17.9009,75.8311,53.713
18.0343,74.7611,54.113
18.1674,72.7537,54.513
18.3013,72.8871,54.913
18.4342,72.9394,55.313
18.568,73.6184,55.713
18.7009,72.9691,56.113
18.8346,73.555,56.513
18.9677,74.4707,56.913
19.1013,75.7687,57.313
19.2344,77.3447,57.713
19.368,78.4676,58.113
19.5011,79.5645,58.513
19.6345,79.1822,58.913
19.7677,79.9602,59.313
19.901,76.0955,59.713
20.0342,74.7842,60.113
20.1677,74.5332,60.513
20.301,74.6221,60.913
20.4344,74.4072,61.313
20.5673,73.9538,61.713
20.7012,73.4773,62.113
20.8339,73.291,62.513
20.9678,72.1546,62.913
21.1006,70.8584,63.313
21.2344,69.2096,63.713
21.3674,68.1124,64.113
21.501,62.934,64.513
21.634,60.804,64.913
21.7676,58.6415,65.313
21.9008,57.3265,65.713
22.0342,56.189,66.113
22.1675,55.2795,66.513
22.3009,55.3454,66.913
22.4341,55.1379,67.313
22.5678,55.1859,67.713
22.701,54.6959,68.113
22.8345,54.5869,68.513
22.9675,53.3676,68.913
23.1013,52.7544,69.313
23.2342,52.2552,69.713
23.368,52.684,70.113
23.5009,53.2597,70.513
23.6347,53.8585,70.913
23.7677,54.1987,71.313
23.9014,54.1514,71.713
24.0343,54.0758,72.113
24.1679,53.6417,72.513
24.301,53.3235,72.913
24.4343,53.2612,73.313
24.5676,53.1237,73.713
24.701,53.1586,74.113
24.8341,52.5571,74.513
24.9678,52.4706,74.913
25.101,52.2264,75.313
25.2344,51.609,75.713
25.3674,50.3156,76.113
25.501,49.9799,76.513
25.634,49.7054,76.913
25.7677,49.5967,77.313
25.9006,49.5906,77.713
26.0343,49.4248,78.113
26.1674,46.8787,78.513
26.3011,46.3283,78.913
26.434,45.9044,79.313
26.5676,44.2085,79.713
26.7008,42.9159,80.113
26.8342,42.1836,80.513
26.9676,41.8037,80.913
27.101,40.8099,81.313
27.2341,40.1838,81.713
27.3678,39.912,82.113
27.5011,39.5709,82.513
27.6345,39.2223,82.913
27.7676,38.7194,83.313
27.9013,37.7958,83.713
28.0344,36.9172,84.113
28.1681,36.3191,84.513
28.3009,35.128,84.913
28.4347,30.5106,85.313
28.5677,29.7484,85.713
28.7014,29.6266,86.113
28.8343,29.5768,86.513
28.9678,29.3906,86.913
29.101,29.2768,87.313
29.2343,28.8481,87.713
29.3677,28.5444,88.113
29.5011,28.5461,88.513
29.6342,28.3627,88.913
29.7678,27.9393,89.313
29.901,27.2948,89.713
30.0344,26.7591,90.113
30.1674,26.3907,90.513
30.3009,25.3073,90.913
30.4341,23.2806,91.313
30.5676,20.9793,91.713
30.7006,20.4819,92.113
30.8343,20.485,92.513
30.9673,20.2954,92.913
31.1011,19.7706,93.313
31.2341,19.4823,93.713
31.3676,18.588,94.113
31.501,18.1191,94.513
31.6342,17.6394,94.913
31.7678,17.2486,95.313
31.9011,16.7311,95.713
32.0344,15.9289,96.113
32.168,15.3621,96.513
32.3012,14.9603,96.913
32.4347,14.6874,97.313
32.5677,14.3746,97.713
32.7013,13.4511,98.113
32.8345,11.7574,98.513
32.9681,11.1502,98.913
33.101,10.6068,99.313
33.2347,10.2329,99.713
33.3678,10.0066,100.113
33.5015,9.35103,100.513
33.6345,9.19627,100.913
33.7679,9.20752,101.313
33.901,8.9084,101.713
34.0342,8.71299,102.113
34.1677,8.93539,102.513
34.3009,8.62011,102.913
34.4341,8.25162,103.313
34.5676,8.15116,103.713
34.7009,8.03292,104.113
34.8343,7.83361,104.513
34.9673,6.06329,104.913
35.1008,5.34128,105.313
35.2341,5.25057,105.713
35.3677,4.93962,106.113
35.5007,4.706,106.513
35.6344,4.32603,106.913
35.7009,4.22907,107.113